timestamp,accX,accY,accZ,gyrX,gyrY,gyrZ
1844367,-0.00,0.04,0.99,-0.12,1.16,-0.18
1844376,-0.00,0.04,0.99,0.00,0.92,-0.18
1844384,-0.01,0.04,0.99,0.12,0.73,-0.31
1844393,-0.01,0.04,0.99,0.49,0.49,-0.18
1844401,-0.01,0.04,0.99,0.55,0.49,-0.24
1844410,-0.02,0.03,0.99,0.61,0.31,-0.18
1844419,-0.02,0.03,0.99,0.67,0.43,-0.37
1844427,-0.02,0.03,0.99,0.79,0.31,-0.18
1844436,-0.02,0.03,0.98,0.92,0.18,-0.24
1844445,-0.02,0.02,0.98,0.98,0.55,-0.31
1844453,-0.02,0.02,0.98,0.85,0.61,-0.49
1844462,-0.02,0.02,0.98,0.79,0.73,-0.55
1844471,-0.03,0.02,0.98,0.85,0.73,-0.49
1844479,-0.03,0.02,0.98,0.79,0.67,-0.43
1844488,-0.03,0.02,0.98,0.67,0.79,-0.18
1844496,-0.03,0.02,0.98,0.49,0.98,0.00
1844505,-0.02,0.02,0.98,0.61,1.04,0.12
1844514,-0.02,0.01,0.98,0.43,1.04,0.12
1844522,-0.02,0.01,0.98,0.24,1.16,0.12
1844531,-0.02,0.01,0.98,0.18,1.34,0.00
1844539,-0.01,0.02,0.98,-0.06,1.28,0.00
1844548,-0.01,0.02,0.98,-0.12,1.22,-0.18
1844557,-0.00,0.02,0.99,-0.18,1.28,-0.06
1844565,-0.00,0.02,0.99,-0.18,1.16,-0.06
1844574,0.00,0.03,0.99,-0.06,1.16,-0.31
1844583,-0.00,0.03,0.99,-0.06,0.73,-0.37
1844591,-0.01,0.04,0.99,0.06,0.49,-0.61
1844600,-0.01,0.04,0.99,-0.06,0.43,-0.43
1844609,-0.01,0.04,0.99,0.18,0.37,-0.24
1844616,-0.02,0.04,0.99,0.37,0.49,-0.24
1844625,-0.02,0.03,0.99,0.61,0.49,-0.18
1844634,-0.02,0.03,0.98,0.73,0.43,-0.18
1844642,-0.02,0.02,0.98,0.73,0.43,-0.12
1844651,-0.02,0.02,0.98,0.85,0.61,-0.06
1844660,-0.02,0.02,0.98,0.85,0.67,-0.31
1844669,-0.02,0.02,0.98,0.85,0.67,-0.37
1844677,-0.02,0.02,0.98,0.73,0.73,-0.37
1844686,-0.03,0.02,0.98,0.85,0.73,-0.43
1844695,-0.03,0.02,0.98,0.73,0.85,-0.37
1844703,-0.03,0.02,0.98,0.61,0.85,-0.18
1844712,-0.03,0.02,0.98,0.49,1.04,0.00
1844720,-0.02,0.02,0.98,0.43,1.28,-0.18
1844729,-0.02,0.02,0.98,0.37,1.04,-0.18
1844737,-0.02,0.02,0.98,0.37,1.04,-0.18
1844746,-0.01,0.02,0.98,0.24,1.28,-0.24
1844755,-0.01,0.03,0.99,0.18,1.28,-0.12
1844764,-0.01,0.03,0.99,0.37,1.22,-0.24
1844772,-0.00,0.03,0.99,0.31,1.16,-0.31
1844781,0.00,0.02,0.99,0.49,0.73,-0.24
1844790,0.00,0.03,0.99,0.43,0.67,-0.37
1844798,-0.00,0.02,0.99,0.55,0.73,-0.55
1844807,-0.00,0.03,0.99,0.55,0.55,-0.55
1844816,-0.01,0.03,0.99,0.55,0.37,-0.43
1844824,-0.01,0.03,0.98,0.49,0.18,-0.31
1844832,-0.02,0.03,0.99,0.55,0.43,-0.24
1844841,-0.02,0.03,0.98,0.73,0.31,-0.18
1844850,-0.03,0.03,0.98,0.67,0.31,-0.06
1844858,-0.03,0.03,0.98,0.67,0.18,0.06
1844867,-0.03,0.02,0.98,0.61,0.18,-0.24
1844876,-0.03,0.02,0.98,0.55,0.37,-0.24
1844885,-0.03,0.02,0.98,0.37,0.61,0.00
1844893,-0.03,0.02,0.98,0.37,0.73,0.00
1844902,-0.03,0.02,0.98,0.43,0.98,-0.12
1844910,-0.02,0.02,0.98,0.24,0.98,-0.24
1844918,-0.02,0.02,0.98,0.43,1.40,-0.18
1844928,-0.02,0.02,0.98,0.24,1.28,-0.37
1844936,-0.01,0.02,0.98,0.18,1.28,-0.31
1844945,-0.01,0.03,0.99,0.12,1.22,-0.24
1844953,-0.01,0.03,0.99,0.31,1.16,-0.18
1844962,-0.01,0.03,0.99,0.31,1.04,-0.31
1844970,-0.01,0.03,0.99,0.37,0.98,-0.37
1844979,-0.01,0.03,0.99,0.43,0.73,-0.31
1844987,-0.01,0.03,0.99,0.37,0.73,-0.43
1844997,-0.01,0.02,0.99,0.61,0.67,-0.43
1845005,-0.01,0.02,0.98,0.49,0.43,-0.18
1845013,-0.01,0.02,0.98,0.55,0.37,-0.37
1845022,-0.01,0.02,0.98,0.49,0.49,-0.31
1845031,-0.02,0.02,0.98,0.49,0.31,-0.24
1845040,-0.02,0.02,0.98,0.55,0.43,-0.24
1845048,-0.02,0.02,0.98,0.43,0.55,-0.12
1845057,-0.02,0.02,0.98,0.24,0.49,-0.18
1845066,-0.02,0.02,0.98,0.24,0.61,-0.18
1845074,-0.02,0.02,0.98,0.37,0.37,-0.12
1845083,-0.02,0.02,0.98,0.37,0.37,-0.06
1845092,-0.02,0.02,0.98,0.31,0.73,-0.06
1845100,-0.02,0.02,0.98,0.12,0.85,-0.06
1845109,-0.02,0.02,0.98,0.12,1.10,0.06
1845117,-0.02,0.02,0.99,0.06,0.98,-0.18
1845126,-0.02,0.03,0.98,0.24,0.98,-0.12
1845135,-0.02,0.03,0.99,0.31,1.10,-0.24
1845143,-0.01,0.03,0.99,0.31,1.16,-0.31
1845152,-0.01,0.03,0.99,0.37,1.16,-0.24
1845160,-0.01,0.03,0.99,0.43,1.10,-0.31
1845169,-0.01,0.03,0.99,0.37,1.10,-0.24
1845178,-0.01,0.03,0.99,0.49,1.10,-0.24
1845186,-0.01,0.03,0.99,0.67,0.79,-0.43
1845194,-0.01,0.03,0.99,0.79,0.67,-0.31
1845203,-0.01,0.03,0.99,0.73,0.79,-0.31
1845212,-0.01,0.03,0.98,0.85,0.61,-0.12
1845220,-0.02,0.02,0.99,0.85,0.79,-0.06
1845229,-0.02,0.02,0.98,0.85,0.67,-0.12
1845238,-0.02,0.02,0.98,0.85,0.73,-0.06
1845246,-0.02,0.01,0.98,0.73,0.67,-0.12
1845255,-0.02,0.01,0.98,0.67,0.67,-0.18
1845264,-0.02,0.01,0.98,0.61,0.73,-0.18
1845272,-0.02,0.02,0.98,0.73,0.73,-0.31
1845281,-0.02,0.01,0.98,0.55,0.92,-0.12
1845290,-0.02,0.02,0.98,0.31,0.92,-0.06
1845298,-0.02,0.02,0.98,0.24,0.92,-0.12
1845306,-0.01,0.02,0.98,0.12,0.92,-0.18
1845316,-0.01,0.02,0.99,0.12,0.85,-0.18
1845324,-0.02,0.03,0.98,0.12,0.98,-0.31
1845333,-0.01,0.03,0.98,0.12,1.16,-0.24
1845341,-0.01,0.03,0.99,0.06,1.16,0.12
1845350,-0.01,0.02,0.99,0.37,1.10,0.00
1845358,-0.01,0.03,0.98,0.31,0.79,-0.06
1845367,-0.01,0.03,0.98,0.37,0.67,-0.24
1845376,-0.01,0.03,0.99,0.31,0.73,-0.49
1845384,-0.01,0.03,0.99,0.43,0.73,-0.37
1845393,-0.01,0.03,0.99,0.61,0.79,-0.49
1845402,-0.01,0.03,0.98,0.67,0.67,-0.37
1845411,-0.01,0.03,0.99,0.55,0.43,-0.43
1845419,-0.02,0.02,0.99,0.55,0.37,-0.31
1845428,-0.02,0.02,0.99,0.73,0.61,-0.24
1845436,-0.02,0.02,0.98,0.79,0.55,-0.24
1845445,-0.02,0.02,0.98,0.67,0.73,-0.18
1845453,-0.02,0.02,0.98,0.67,0.55,-0.06
1845462,-0.02,0.02,0.98,0.67,0.49,0.00
1845471,-0.02,0.01,0.98,0.49,0.67,0.00
1845479,-0.02,0.01,0.98,0.61,0.67,0.06
1845488,-0.02,0.01,0.98,0.49,0.67,-0.18
1845496,-0.01,0.02,0.98,0.37,0.79,-0.12
1845505,-0.01,0.02,0.98,0.37,0.73,-0.31
1845514,-0.02,0.03,0.98,0.24,0.73,-0.43
1845522,-0.02,0.03,0.98,0.24,0.67,-0.49
1845531,-0.02,0.03,0.98,0.37,0.67,-0.43
1845540,-0.02,0.03,0.98,0.31,0.67,-0.37
1845548,-0.02,0.03,0.98,0.37,0.73,-0.31
1845557,-0.02,0.03,0.98,0.43,0.79,-0.24
1845565,-0.02,0.02,0.98,0.55,1.04,-0.31
1845574,-0.02,0.02,0.98,0.55,1.04,-0.18
1845582,-0.02,0.02,0.98,0.61,1.04,-0.24
1845591,-0.02,0.03,0.98,0.55,0.98,-0.24
1845600,-0.01,0.02,0.99,0.49,0.98,-0.24
1845609,-0.01,0.02,0.99,0.73,1.04,-0.18
1845617,-0.01,0.02,0.98,0.61,0.92,-0.18
1845625,-0.01,0.02,0.99,0.67,1.04,-0.24
1845634,-0.01,0.02,0.99,0.67,0.79,-0.12
1845642,-0.01,0.02,0.98,0.55,0.61,-0.06
1845651,-0.02,0.02,0.98,0.43,0.61,-0.12
1845660,-0.02,0.02,0.98,0.43,0.61,0.12
1845669,-0.02,0.01,0.98,0.37,0.61,0.18
1845677,-0.01,0.01,0.98,0.49,0.61,0.06
1845686,-0.01,0.02,0.98,0.24,0.67,0.00
1845694,-0.01,0.02,0.98,-0.06,0.67,-0.24
1845703,-0.02,0.03,0.98,0.00,0.73,-0.31
1845712,-0.02,0.03,0.99,0.00,0.79,-0.37
1845720,-0.02,0.03,0.99,0.24,0.73,-0.49
1845729,-0.02,0.03,0.98,0.24,0.79,-0.37
1845738,-0.02,0.03,0.98,0.37,0.92,-0.12
1845746,-0.02,0.03,0.98,0.37,0.98,-0.18
1845755,-0.02,0.03,0.99,0.55,0.92,-0.37
1845763,-0.02,0.03,0.98,0.67,0.79,-0.24
1845772,-0.02,0.03,0.98,0.61,1.04,-0.06
1845781,-0.02,0.03,0.98,0.73,1.16,0.06
1845790,-0.02,0.02,0.98,0.67,1.16,-0.06
1845798,-0.01,0.02,0.98,0.73,1.28,0.00
1845807,-0.01,0.02,0.98,0.79,1.28,0.00
1845815,-0.01,0.02,0.98,0.73,1.04,-0.06
1845823,-0.02,0.02,0.98,0.73,0.92,-0.12
1845832,-0.02,0.02,0.98,0.61,0.92,-0.18
1845841,-0.02,0.02,0.98,0.67,0.85,-0.12
1845850,-0.01,0.01,0.98,0.55,0.85,0.06
1845858,-0.01,0.01,0.98,0.37,0.67,0.24
1845867,-0.01,0.02,0.98,0.24,0.85,0.00
1845875,-0.01,0.02,0.98,0.31,0.85,-0.24
1845884,-0.01,0.03,0.99,0.31,0.79,-0.18
1845893,-0.01,0.03,0.99,0.18,0.92,-0.12
1845901,-0.01,0.03,0.99,0.12,0.85,-0.18
1845910,-0.01,0.03,0.99,0.24,0.73,-0.12
1845919,-0.01,0.03,0.99,0.24,0.37,-0.24
1845927,-0.01,0.03,0.99,0.37,0.61,-0.37
1845936,-0.02,0.03,0.99,0.49,0.55,-0.37
1845944,-0.02,0.03,0.99,0.61,0.73,-0.31
1845953,-0.02,0.03,0.98,0.55,0.67,-0.31
1845962,-0.02,0.03,0.98,0.49,0.92,-0.31
1845970,-0.02,0.03,0.98,0.55,0.85,-0.31
1845979,-0.02,0.03,0.98,0.73,0.73,-0.31
1845987,-0.02,0.02,0.98,0.61,0.92,-0.31
1845996,-0.02,0.02,0.98,0.61,0.73,-0.18
1846005,-0.02,0.02,0.98,0.61,0.67,0.00
1846013,-0.02,0.02,0.98,0.67,0.73,0.00
1846022,-0.02,0.01,0.98,0.67,0.79,0.00
1846030,-0.02,0.01,0.98,0.67,0.61,0.12
1846039,-0.02,0.01,0.98,0.37,0.92,0.12
1846048,-0.02,0.01,0.98,0.31,1.04,0.06
1846057,-0.01,0.01,0.98,0.31,0.98,-0.06
1846066,-0.01,0.01,0.98,0.24,1.10,-0.12
1846074,-0.01,0.02,0.99,0.31,1.16,-0.31
1846083,-0.01,0.03,0.99,0.18,0.98,-0.55
1846091,-0.01,0.04,0.99,0.12,1.04,-0.55
1846100,-0.01,0.04,0.99,0.00,1.04,-0.24
1846108,-0.01,0.04,0.99,0.18,0.85,-0.06
1846117,-0.01,0.03,0.99,0.37,0.79,-0.18
1846125,-0.01,0.03,0.99,0.67,0.79,-0.06
1846134,-0.01,0.03,0.99,0.67,0.67,-0.31
1846143,-0.01,0.03,0.99,0.85,0.61,-0.43
1846151,-0.02,0.03,0.98,0.73,0.43,-0.37
1846160,-0.02,0.03,0.98,0.79,0.49,-0.24
1846169,-0.02,0.02,0.98,0.85,0.55,-0.31
1846178,-0.02,0.02,0.99,0.85,0.67,-0.24
1846186,-0.02,0.02,0.98,0.79,0.67,-0.24
1846195,-0.02,0.02,0.98,0.73,0.49,-0.18
1846204,-0.02,0.02,0.98,0.73,0.49,-0.31
1846212,-0.03,0.02,0.98,0.73,0.61,-0.24
1846221,-0.03,0.01,0.98,0.61,0.79,-0.06
1846229,-0.03,0.01,0.98,0.49,0.73,0.18
1846237,-0.02,0.01,0.98,0.37,0.85,0.18
1846246,-0.02,0.01,0.98,0.43,1.04,0.18
1846255,-0.02,0.01,0.98,0.12,1.10,0.18
1846264,-0.01,0.01,0.98,0.06,1.10,-0.12
1846273,-0.01,0.02,0.98,-0.06,1.04,-0.24
1846281,-0.01,0.03,0.98,-0.18,0.98,-0.43
1846290,-0.01,0.03,0.99,0.12,1.04,-0.31
1846298,-0.01,0.04,0.99,0.18,1.10,-0.49
1846307,-0.01,0.04,0.99,-0.06,0.98,-0.31
1846316,-0.01,0.04,0.99,0.24,0.92,-0.24
1846324,-0.01,0.03,0.99,0.55,0.79,-0.12
1846332,-0.01,0.03,0.99,0.67,0.73,-0.24
1846341,-0.01,0.03,0.99,0.55,0.61,-0.24
1846349,-0.01,0.03,0.98,0.73,0.43,-0.24
1846358,-0.02,0.03,0.98,0.79,0.43,-0.12
1846367,-0.02,0.02,0.98,0.73,0.61,-0.18
1846375,-0.02,0.02,0.98,0.61,0.61,-0.06
1846384,-0.02,0.02,0.98,0.67,0.73,-0.18
1846393,-0.02,0.02,0.98,0.67,0.67,-0.24
1846402,-0.02,0.01,0.98,0.55,0.61,-0.37
1846410,-0.02,0.02,0.98,0.55,0.61,-0.06
1846419,-0.03,0.02,0.98,0.49,0.79,0.06
1846427,-0.03,0.02,0.98,0.43,0.61,0.06
1846436,-0.02,0.02,0.98,0.37,0.67,0.06
1846445,-0.02,0.02,0.97,0.18,0.92,0.18
1846454,-0.02,0.01,0.98,0.00,1.10,0.06
1846462,-0.02,0.02,0.98,-0.06,0.92,-0.12
1846471,-0.02,0.03,0.98,-0.06,1.10,-0.43
1846480,-0.02,0.03,0.99,0.06,1.28,-0.37
1846488,-0.01,0.04,0.99,0.06,1.22,-0.43
1846497,-0.01,0.04,0.99,0.24,1.34,-0.37
1846505,-0.01,0.04,0.99,0.24,1.28,-0.24
1846513,-0.01,0.04,0.99,0.43,1.10,-0.37
1846522,-0.01,0.03,0.99,0.67,0.98,-0.37
1846531,-0.01,0.03,0.99,0.67,0.92,-0.37
1846540,-0.01,0.03,0.99,0.67,0.92,-0.43
1846549,-0.01,0.03,0.99,0.79,0.67,-0.31
1846557,-0.02,0.02,0.98,0.98,0.55,-0.31
1846565,-0.02,0.02,0.98,0.92,0.55,-0.18
1846574,-0.02,0.02,0.98,0.79,0.49,-0.06
1846583,-0.02,0.02,0.98,0.79,0.67,-0.06
1846591,-0.02,0.01,0.98,0.73,0.67,0.00
1846600,-0.02,0.01,0.98,0.73,0.61,-0.06
1846608,-0.02,0.01,0.98,0.55,0.37,-0.06
1846617,-0.02,0.01,0.98,0.37,0.67,-0.06
1846626,-0.02,0.01,0.98,0.24,0.67,0.00
1846634,-0.02,0.01,0.98,-0.06,0.67,0.18
1846643,-0.02,0.01,0.98,0.00,0.73,0.24
1846652,-0.02,0.01,0.98,-0.12,0.67,0.18
1846660,-0.02,0.01,0.98,-0.31,0.98,0.00
1846669,-0.01,0.02,0.98,-0.12,0.85,-0.24
1846677,-0.01,0.03,0.98,-0.06,0.92,-0.49
1846686,-0.02,0.04,0.98,-0.18,0.92,-0.43
1846694,-0.02,0.05,0.99,-0.06,0.98,-0.37
1846703,-0.02,0.05,0.99,0.18,1.04,-0.18
1846712,-0.02,0.04,0.99,0.49,1.16,-0.12
1846721,-0.01,0.04,0.99,0.61,0.98,-0.06
1846729,-0.01,0.03,0.99,0.61,0.92,-0.12
1846738,-0.01,0.03,0.99,0.73,1.04,-0.24
1846747,-0.00,0.03,0.99,0.73,0.98,-0.43
1846755,-0.00,0.02,0.99,1.04,0.98,-0.31
1846763,-0.00,0.02,0.99,1.04,0.55,-0.49
1846772,-0.01,0.02,0.99,0.98,0.49,-0.43
1846781,-0.01,0.02,0.99,1.04,0.55,-0.37
1846789,-0.01,0.02,0.99,0.85,0.43,-0.43
1846798,-0.02,0.02,0.98,0.92,0.43,-0.43
1846807,-0.03,0.02,0.97,0.92,0.18,-0.31
1846816,-0.03,0.02,0.97,0.73,0.18,0.00
1846824,-0.04,0.01,0.97,0.43,0.43,0.31
1846833,-0.03,0.01,0.97,0.18,0.55,0.37
1846841,-0.03,0.00,0.97,0.37,0.79,0.49
1846850,-0.02,0.01,0.97,0.06,1.04,0.37
1846858,-0.02,0.01,0.98,0.18,1.10,-0.06
1846867,-0.02,0.02,0.98,0.00,1.22,-0.18
1846875,-0.01,0.02,0.98,-0.06,1.40,-0.37
1846884,-0.01,0.03,0.99,0.06,1.40,-0.43
1846893,-0.01,0.03,0.99,0.00,1.22,-0.43
1846901,-0.00,0.04,1.00,0.06,1.22,-0.49
1846911,-0.00,0.04,0.99,0.12,0.79,-0.37
1846919,-0.00,0.04,0.99,0.31,0.79,-0.43
1846927,-0.01,0.04,0.99,0.61,0.61,-0.49
1846936,-0.01,0.04,0.99,0.61,0.49,-0.43
1846944,-0.02,0.04,0.99,0.79,0.18,-0.43
1846953,-0.02,0.04,0.98,0.79,0.55,-0.18
1846962,-0.02,0.03,0.98,0.98,0.55,0.00
1846970,-0.02,0.02,0.98,0.92,0.61,0.18
1846979,-0.02,0.01,0.98,1.04,0.55,0.06
1846988,-0.02,0.01,0.98,1.04,0.67,0.00
1846996,-0.01,0.01,0.98,0.79,0.73,-0.31
1847005,-0.02,0.01,0.98,0.49,0.67,-0.24
1847013,-0.02,0.01,0.98,0.37,0.67,-0.24
1847022,-0.02,0.01,0.98,0.18,0.49,0.06
1847031,-0.02,0.02,0.98,0.24,0.49,0.06
1847040,-0.02,0.01,0.98,0.00,0.55,0.18
1847048,-0.02,0.02,0.98,0.06,0.61,0.06
1847056,-0.02,0.02,0.98,0.18,0.67,0.00
1847066,-0.03,0.02,0.98,0.00,0.73,-0.18
1847074,-0.03,0.03,0.98,-0.06,0.85,-0.24
1847083,-0.03,0.03,0.99,-0.12,0.92,-0.31
1847091,-0.03,0.03,0.98,0.06,0.98,-0.37
1847100,-0.02,0.04,0.99,0.18,1.28,-0.55
1847109,-0.02,0.04,0.99,0.43,1.40,-0.37
1847117,-0.01,0.04,0.99,0.61,1.28,-0.31
1847126,-0.01,0.03,0.99,0.67,1.34,-0.43
1847134,-0.00,0.04,0.99,0.67,1.22,-0.31
1847143,-0.01,0.03,0.99,0.73,0.92,-0.31
1847152,-0.00,0.03,0.99,0.98,0.98,-0.24
1847160,-0.01,0.03,0.99,1.04,0.92,-0.12
1847168,-0.01,0.02,0.99,0.92,0.85,-0.12
1847177,-0.01,0.01,0.98,0.92,0.49,-0.12
1847186,-0.01,0.01,0.98,0.92,0.31,-0.12
1847195,-0.01,0.01,0.98,0.79,0.49,-0.18
1847203,-0.02,0.01,0.98,0.79,0.43,-0.12
1847212,-0.02,0.01,0.98,0.55,0.24,-0.06
1847221,-0.03,0.01,0.98,0.43,0.43,-0.06
1847229,-0.03,0.01,0.98,0.18,0.49,-0.06
1847238,-0.02,0.01,0.98,0.00,0.31,0.12
1847247,-0.02,0.02,0.98,0.12,0.55,0.06
1847255,-0.02,0.02,0.98,0.12,0.61,0.06
1847264,-0.02,0.02,0.98,0.00,0.61,-0.06
1847273,-0.02,0.03,0.99,-0.18,0.92,-0.18
1847281,-0.02,0.03,0.99,0.00,0.85,-0.31
1847290,-0.02,0.04,0.99,-0.06,1.04,-0.31
1847298,-0.02,0.04,0.99,0.00,0.85,-0.43
1847307,-0.02,0.04,0.99,0.24,0.85,-0.31
1847315,-0.02,0.04,0.99,0.31,0.79,-0.18
1847324,-0.02,0.04,0.99,0.49,0.92,0.00
1847333,-0.02,0.03,0.99,0.67,0.92,0.06
1847341,-0.02,0.03,0.98,0.73,1.04,-0.12
1847350,-0.02,0.03,0.99,0.73,1.04,-0.24
1847358,-0.01,0.03,0.99,0.73,1.16,-0.43
1847368,-0.01,0.03,0.99,0.85,1.22,-0.37
1847376,-0.01,0.02,0.99,0.85,1.04,-0.31
1847384,-0.01,0.02,0.99,0.79,0.92,-0.18
1847393,-0.01,0.01,0.98,0.85,0.73,-0.31
1847401,-0.01,0.01,0.98,0.79,0.49,-0.18
1847411,-0.01,0.01,0.98,0.79,0.43,-0.12
1847419,-0.02,0.01,0.98,0.55,0.31,-0.12
1847427,-0.02,0.01,0.98,0.49,0.18,0.00
1847436,-0.02,0.01,0.98,0.37,0.31,0.18
1847445,-0.02,0.01,0.98,0.24,0.37,0.00
1847453,-0.02,0.01,0.98,0.06,0.67,0.06
1847461,-0.02,0.01,0.98,-0.06,0.73,-0.12
1847470,-0.02,0.02,0.98,-0.18,0.85,-0.31
1847479,-0.02,0.03,0.98,0.00,0.85,-0.43
1847487,-0.02,0.03,0.98,-0.12,0.92,-0.43
1847497,-0.02,0.04,0.99,0.18,1.10,-0.37
1847505,-0.02,0.04,0.99,0.24,1.10,-0.37
1847514,-0.01,0.04,0.99,0.37,1.04,-0.24
1847522,-0.01,0.04,0.99,0.55,0.92,-0.24
1847531,-0.01,0.04,0.99,0.73,0.85,-0.31
1847540,-0.01,0.03,0.99,0.79,0.92,-0.18
1847549,-0.02,0.03,0.99,0.73,0.79,-0.31
1847557,-0.01,0.03,0.99,0.85,0.92,-0.24
1847565,-0.01,0.02,0.98,0.98,0.73,-0.18
1847574,-0.01,0.02,0.98,1.04,0.73,-0.18
1847583,-0.02,0.02,0.98,0.85,0.79,-0.06
1847591,-0.01,0.02,0.98,0.92,0.61,-0.06
1847600,-0.02,0.01,0.98,0.79,0.55,-0.12
1847609,-0.01,0.01,0.98,0.85,0.61,-0.06
1847617,-0.02,0.01,0.98,0.67,0.73,-0.12
1847626,-0.02,0.01,0.98,0.37,0.73,-0.18
1847635,-0.02,0.02,0.98,0.49,0.55,-0.06
1847643,-0.02,0.01,0.98,0.31,0.37,0.00
1847652,-0.02,0.01,0.98,0.24,0.55,0.06
1847660,-0.03,0.02,0.98,0.18,0.79,0.06
1847669,-0.02,0.02,0.98,0.06,1.04,0.00
1847677,-0.02,0.02,0.98,-0.06,1.16,-0.31
1847686,-0.02,0.03,0.98,-0.06,1.28,-0.49
1847695,-0.02,0.03,0.99,0.12,1.28,-0.49
1847703,-0.01,0.04,0.99,0.18,1.10,-0.43
1847712,-0.01,0.04,0.99,0.37,1.04,-0.43
1847721,-0.01,0.04,0.99,0.24,1.04,-0.31
1847730,-0.01,0.03,0.99,0.12,1.10,-0.31
1847738,-0.01,0.03,0.99,0.55,1.10,-0.43
1847747,-0.01,0.03,0.99,0.55,0.79,-0.24
1847755,-0.01,0.03,0.99,0.61,0.73,-0.31
1847764,-0.01,0.03,0.99,0.98,0.67,-0.24
1847772,-0.01,0.02,0.98,0.92,0.61,-0.12
1847781,-0.01,0.01,0.98,0.79,0.79,0.00
1847789,-0.01,0.01,0.98,0.85,0.55,-0.06
1847798,-0.01,0.01,0.98,0.67,0.49,-0.12
1847807,-0.01,0.01,0.98,0.61,0.43,-0.31
1847815,-0.02,0.01,0.98,0.43,0.31,-0.37
1847824,-0.02,0.01,0.98,0.43,0.18,-0.12
1847833,-0.03,0.02,0.98,0.31,0.31,-0.06
1847842,-0.03,0.02,0.98,0.06,0.49,-0.06
1847850,-0.03,0.02,0.98,0.00,0.61,0.06
1847859,-0.02,0.02,0.98,0.00,0.37,0.06
1847867,-0.02,0.02,0.98,0.00,0.55,-0.12
1847876,-0.02,0.03,0.98,-0.31,1.04,-0.18
1847884,-0.02,0.03,0.98,-0.18,1.10,-0.24
1847893,-0.02,0.04,0.98,0.00,1.04,-0.43
1847902,-0.02,0.04,0.99,0.00,1.04,-0.18
1847910,-0.02,0.04,0.99,0.43,1.22,-0.12
1847919,-0.01,0.04,0.99,0.61,1.28,-0.24
1847928,-0.01,0.03,0.99,0.67,1.16,-0.18
1847936,-0.01,0.03,0.99,0.61,1.22,-0.31
1847944,-0.01,0.03,0.99,0.73,1.16,-0.43
1847953,-0.01,0.03,0.99,0.79,1.10,-0.49
1847962,-0.01,0.03,0.99,1.04,0.98,-0.43
1847970,-0.01,0.03,0.99,0.98,0.85,-0.12
1847979,-0.01,0.02,0.98,0.85,0.73,0.06
1847988,-0.01,0.02,0.99,0.73,0.67,0.00
1847996,-0.01,0.01,0.98,0.61,0.49,-0.12
1848005,-0.02,0.01,0.98,0.73,0.31,0.00
1848014,-0.02,0.01,0.98,0.73,0.37,0.12
1848023,-0.02,0.01,0.97,0.61,0.31,0.06
1848031,-0.03,0.01,0.97,0.31,0.18,0.24
1848040,-0.02,0.01,0.98,0.18,0.49,0.06
1848049,-0.02,0.01,0.98,-0.18,0.73,-0.06
1848057,-0.02,0.01,0.98,-0.49,0.98,-0.12
1848066,-0.02,0.02,0.99,-0.31,0.85,-0.31
1848074,-0.02,0.03,0.99,-0.37,1.04,-0.43
1848083,-0.02,0.03,0.99,-0.18,0.98,-0.55
1848091,-0.02,0.04,0.99,-0.06,1.10,-0.43
1848099,-0.02,0.04,0.99,-0.12,1.04,-0.31
1848109,-0.02,0.04,0.99,0.18,0.98,-0.31
1848117,-0.02,0.04,0.99,0.37,0.79,-0.18
1848126,-0.01,0.03,0.99,0.37,0.92,-0.31
1848135,-0.01,0.03,0.99,0.49,0.92,-0.24
1848143,-0.01,0.03,0.99,0.55,0.92,-0.43
1848151,-0.01,0.03,0.99,0.73,0.85,-0.37
1848160,-0.01,0.03,0.98,1.04,0.67,-0.24
1848169,-0.01,0.02,0.98,0.79,0.79,-0.12
1848178,-0.01,0.02,0.98,0.79,0.67,-0.18
1848187,-0.01,0.02,0.98,0.98,0.73,-0.24
1848195,-0.01,0.02,0.98,0.85,0.55,-0.06
1848204,-0.02,0.01,0.98,0.79,0.55,-0.18
1848212,-0.02,0.01,0.98,0.61,0.31,0.00
1848221,-0.02,0.02,0.98,0.49,0.43,0.06
1848230,-0.02,0.02,0.98,0.55,0.55,-0.06
1848238,-0.02,0.02,0.98,0.37,0.49,-0.12
1848246,-0.02,0.02,0.98,0.37,0.55,-0.18
1848255,-0.02,0.02,0.98,0.31,0.67,-0.31
1848264,-0.02,0.02,0.98,0.12,0.79,-0.24
1848272,-0.02,0.02,0.98,0.24,0.79,-0.12
1848281,-0.02,0.02,0.98,0.18,0.85,-0.24
1848290,-0.02,0.03,0.98,0.31,0.73,-0.31
1848299,-0.02,0.03,0.99,0.06,0.55,-0.43
1848307,-0.02,0.03,0.99,0.18,0.73,-0.49
1848315,-0.02,0.03,0.99,0.43,0.85,-0.55
1848324,-0.02,0.03,0.99,0.43,0.73,-0.49
1848333,-0.02,0.03,0.98,0.67,0.79,-0.24
1848342,-0.02,0.03,0.98,0.73,0.98,-0.18
1848350,-0.02,0.03,0.98,0.61,0.92,-0.06
1848358,-0.02,0.02,0.98,0.73,0.79,-0.06
1848367,-0.02,0.02,0.98,0.85,0.85,-0.06
1848376,-0.01,0.02,0.98,0.85,0.98,-0.31
1848384,-0.01,0.02,0.98,0.73,0.92,-0.37
1848393,-0.01,0.02,0.98,0.85,0.92,-0.37
1848401,-0.01,0.02,0.99,0.67,1.04,-0.37
1848410,-0.01,0.02,0.99,0.61,0.79,-0.06
1848419,-0.02,0.02,0.98,0.73,0.49,0.00
1848428,-0.02,0.02,0.98,0.49,0.55,-0.12
1848437,-0.02,0.02,0.98,0.18,0.49,0.12
1848445,-0.02,0.02,0.98,0.24,0.73,0.18
1848454,-0.02,0.02,0.98,0.24,0.79,0.18
1848462,-0.02,0.02,0.98,0.24,0.43,0.12
1848470,-0.02,0.02,0.98,0.18,0.55,0.06
1848479,-0.02,0.02,0.98,0.12,0.73,-0.24
1848488,-0.02,0.02,0.98,0.12,0.85,-0.24
1848496,-0.01,0.03,0.98,0.24,1.04,-0.37
1848505,-0.01,0.03,0.99,0.49,0.98,-0.37
1848514,-0.01,0.03,0.99,0.24,0.98,-0.43
1848523,-0.02,0.03,0.99,0.43,1.22,-0.49
1848531,-0.02,0.03,0.99,0.61,1.10,-0.49
1848539,-0.02,0.03,0.99,0.79,0.98,-0.49
1848549,-0.02,0.03,0.99,0.67,0.67,-0.43
1848557,-0.02,0.03,0.99,0.92,0.85,-0.24
1848565,-0.02,0.02,0.98,0.92,0.85,0.00
1848574,-0.01,0.02,0.98,0.79,0.98,0.06
1848582,-0.01,0.02,0.98,0.79,0.61,0.06
1848592,-0.01,0.02,0.98,0.79,0.67,-0.06
1848600,-0.01,0.01,0.98,0.73,0.67,-0.06
1848609,-0.01,0.01,0.98,0.49,0.37,-0.06
1848618,-0.02,0.01,0.98,0.43,0.31,-0.12
1848626,-0.02,0.02,0.98,0.31,0.55,-0.18
1848635,-0.02,0.02,0.98,0.31,0.43,-0.12
1848643,-0.02,0.02,0.98,0.12,0.55,-0.06
1848652,-0.02,0.02,0.98,0.00,0.49,-0.06
1848660,-0.02,0.02,0.98,0.18,0.67,0.00
1848669,-0.02,0.02,0.98,0.18,0.92,-0.24
1848677,-0.02,0.03,0.98,0.06,0.85,-0.31
1848686,-0.02,0.03,0.99,0.06,0.67,-0.31
1848694,-0.02,0.03,0.99,0.06,0.98,-0.43
1848703,-0.02,0.03,0.99,0.12,0.92,-0.37
1848712,-0.02,0.03,0.99,0.43,0.79,-0.43
1848720,-0.02,0.03,0.99,0.61,0.92,-0.43
1848729,-0.02,0.03,0.98,0.55,0.79,-0.37
1848738,-0.02,0.03,0.99,0.73,0.92,-0.37
1848746,-0.02,0.03,0.99,0.79,0.92,-0.31
1848755,-0.02,0.03,0.99,0.73,0.85,-0.24
1848764,-0.02,0.03,0.98,0.92,0.92,-0.24
1848773,-0.01,0.02,0.99,0.79,0.85,-0.18
1848781,-0.01,0.02,0.98,0.79,1.04,-0.18
1848789,-0.01,0.01,0.98,0.98,0.85,-0.12
1848798,-0.01,0.01,0.98,0.85,0.73,0.06
1848807,-0.02,0.01,0.98,0.55,0.55,0.00
1848816,-0.01,0.01,0.98,0.49,0.55,0.06
1848824,-0.01,0.01,0.98,0.37,0.43,0.06
1848832,-0.01,0.01,0.98,0.24,0.37,0.12
1848842,-0.02,0.01,0.98,0.06,0.61,0.00
1848850,-0.02,0.02,0.98,0.06,0.79,-0.12
1848859,-0.02,0.02,0.98,0.06,0.73,-0.06
1848868,-0.02,0.02,0.99,-0.18,0.92,-0.18
1848876,-0.02,0.03,0.99,0.00,0.79,-0.37
1848885,-0.02,0.03,0.99,-0.06,0.85,-0.49
1848893,-0.02,0.04,0.99,0.12,0.85,-0.43
1848902,-0.02,0.04,0.99,0.24,0.85,-0.37
1848911,-0.02,0.04,0.99,0.37,0.73,-0.06
1848919,-0.02,0.03,0.99,0.24,0.98,-0.06
1848928,-0.02,0.03,0.99,0.55,0.98,-0.18
1848936,-0.02,0.03,0.99,0.55,0.85,-0.06
1848945,-0.01,0.03,0.99,0.61,0.73,-0.24
1848954,-0.01,0.03,0.99,0.73,0.85,-0.43
1848962,-0.01,0.03,0.99,0.73,0.85,-0.24
1848971,-0.01,0.02,0.99,0.85,0.79,-0.12
1848980,-0.01,0.02,0.99,0.98,0.79,-0.24
1848988,-0.02,0.02,0.98,0.98,0.73,-0.18
1848997,-0.02,0.02,0.98,0.92,0.55,-0.18
1849005,-0.02,0.01,0.98,0.85,0.55,0.06
1849014,-0.02,0.01,0.98,0.79,0.67,0.00
1849022,-0.02,0.01,0.98,0.67,0.55,0.12
1849031,-0.02,0.01,0.98,0.31,0.67,0.06
1849039,-0.02,0.01,0.98,0.12,0.79,0.06
1849048,-0.02,0.01,0.98,0.24,0.79,-0.06
1849057,-0.02,0.01,0.98,-0.06,0.67,-0.12
1849065,-0.01,0.02,0.98,-0.12,0.92,-0.31
1849074,-0.01,0.02,0.99,-0.06,0.92,-0.37
1849083,-0.01,0.03,0.99,0.12,0.85,-0.43
1849091,-0.01,0.03,0.99,0.06,0.61,-0.43
1849100,-0.01,0.03,0.99,0.18,0.73,-0.37
1849109,-0.02,0.04,0.99,0.18,0.67,-0.37
1849117,-0.02,0.04,0.99,0.37,0.61,-0.43
1849126,-0.02,0.04,0.99,0.43,0.73,-0.43
1849135,-0.02,0.04,0.99,0.55,0.79,-0.37
1849143,-0.02,0.04,0.99,0.61,0.67,-0.31
1849152,-0.02,0.03,0.98,0.67,0.73,-0.18
1849161,-0.02,0.03,0.98,0.79,0.85,-0.18
1849169,-0.02,0.02,0.98,0.79,0.92,-0.06
1849177,-0.01,0.02,0.98,0.85,0.85,-0.18
1849186,-0.01,0.01,0.98,1.10,0.79,-0.31
1849194,-0.01,0.01,0.98,1.10,0.85,-0.24
1849204,-0.01,0.01,0.98,0.85,0.61,-0.31
1849212,-0.01,0.01,0.98,0.73,0.67,-0.31
1849220,-0.02,0.01,0.98,0.49,0.79,-0.06
1849229,-0.02,0.01,0.98,0.43,0.67,-0.06
1849238,-0.02,0.01,0.98,0.37,0.73,-0.12
1849247,-0.01,0.02,0.98,0.12,0.73,-0.12
1849255,-0.02,0.02,0.98,-0.18,0.73,-0.06
1849264,-0.02,0.02,0.98,-0.18,0.73,-0.18
1849273,-0.02,0.03,0.98,-0.06,0.92,-0.12
1849282,-0.02,0.03,0.98,0.00,0.98,-0.24
1849290,-0.02,0.03,0.99,0.06,0.79,-0.12
1849299,-0.02,0.03,0.99,0.00,0.85,0.00
1849307,-0.02,0.03,0.99,0.12,0.92,0.06
1849316,-0.01,0.03,0.99,0.31,1.10,-0.12
1849324,-0.01,0.03,0.99,0.49,1.04,-0.31
1849333,-0.01,0.03,0.99,0.49,0.98,-0.31
1849341,-0.01,0.03,0.99,0.55,0.79,-0.31
1849350,-0.01,0.03,0.99,0.73,0.79,-0.24
1849359,-0.01,0.03,0.99,0.67,0.73,-0.31
1849368,-0.01,0.02,0.99,0.73,0.67,-0.31
1849376,-0.01,0.02,0.98,0.67,0.61,-0.31
1849385,-0.02,0.02,0.98,0.55,0.55,-0.31
1849393,-0.02,0.02,0.99,0.55,0.55,-0.31
1849402,-0.02,0.02,0.98,0.55,0.43,-0.18
1849411,-0.02,0.02,0.98,0.49,0.43,-0.06
1849419,-0.02,0.02,0.98,0.49,0.67,-0.18
1849427,-0.02,0.01,0.98,0.49,0.79,-0.06
1849436,-0.02,0.01,0.98,0.37,0.79,-0.18
1849445,-0.02,0.02,0.98,0.31,0.67,-0.18
1849454,-0.02,0.02,0.98,-0.06,1.04,-0.12
1849462,-0.02,0.02,0.98,0.12,0.92,-0.31
1849471,-0.02,0.03,0.98,0.24,1.04,-0.24
1849479,-0.02,0.03,0.99,0.06,0.85,-0.31
1849488,-0.02,0.03,0.99,0.24,0.85,-0.31
1849496,-0.02,0.03,0.99,0.24,0.85,-0.31
1849505,-0.01,0.03,0.99,0.24,0.98,-0.24
1849514,-0.01,0.03,0.99,0.61,0.92,-0.37
1849522,-0.01,0.03,0.99,0.49,0.79,-0.31
1849531,-0.01,0.03,0.99,0.61,0.73,-0.31
1849540,-0.01,0.03,0.99,0.55,0.73,-0.24
1849548,-0.01,0.03,0.98,0.37,0.67,-0.24
1849557,-0.01,0.02,0.99,0.67,0.92,-0.18
1849566,-0.01,0.02,0.98,0.55,0.98,-0.37
1849575,-0.01,0.02,0.98,0.55,0.85,-0.24
1849583,-0.01,0.02,0.98,0.49,0.49,-0.12
1849592,-0.01,0.02,0.98,0.43,0.49,-0.18
1849600,-0.02,0.02,0.98,0.37,0.43,-0.18
1849609,-0.02,0.02,0.98,0.24,0.61,-0.06
1849617,-0.02,0.02,0.98,0.24,0.55,-0.06
1849626,-0.02,0.02,0.98,0.18,0.55,-0.06
1849634,-0.02,0.02,0.98,0.12,0.43,0.06
1849643,-0.02,0.02,0.98,0.18,0.49,-0.24
1849652,-0.02,0.03,0.98,0.24,0.61,-0.31
1849660,-0.02,0.03,0.99,0.12,0.79,-0.43
1849669,-0.02,0.03,0.98,0.31,0.79,-0.31
1849678,-0.02,0.03,0.98,0.18,0.85,-0.12
1849686,-0.02,0.03,0.98,0.43,0.73,-0.12
1849695,-0.02,0.03,0.99,0.61,0.79,-0.37
1849704,-0.02,0.03,0.98,0.67,0.79,-0.31
1849713,-0.02,0.03,0.98,0.61,0.85,-0.43
1849721,-0.02,0.02,0.98,0.61,0.67,-0.31
1849730,-0.02,0.02,0.98,0.85,0.92,-0.24
1849738,-0.01,0.02,0.98,0.55,0.85,-0.31
1849746,-0.01,0.02,0.98,0.61,0.79,-0.31
1849755,-0.01,0.02,0.98,0.55,0.92,-0.31
1849764,-0.01,0.02,0.99,0.73,0.73,-0.18
1849772,-0.01,0.02,0.98,0.55,0.73,-0.06
1849781,-0.01,0.02,0.98,0.55,0.37,0.00
1849790,-0.01,0.02,0.98,0.49,0.49,0.00
1849798,-0.01,0.02,0.98,0.31,0.55,0.00
1849807,-0.01,0.01,0.98,0.12,0.55,-0.06
1849816,-0.01,0.02,0.98,0.06,0.67,-0.06
1849824,-0.02,0.02,0.98,0.00,0.55,-0.18
1849832,-0.02,0.03,0.98,0.12,0.67,-0.12
1849841,-0.02,0.03,0.98,0.12,0.79,-0.37
1849850,-0.02,0.03,0.98,0.31,0.73,-0.37
1849859,-0.02,0.03,0.99,0.37,0.73,-0.24
1849868,-0.02,0.03,0.99,0.31,0.73,-0.18
1849876,-0.02,0.03,0.99,0.37,0.73,-0.18
1849885,-0.02,0.03,0.99,0.31,0.92,-0.12
1849894,-0.02,0.03,0.99,0.61,0.73,-0.24
1849902,-0.02,0.03,0.98,0.61,0.79,-0.31
1849911,-0.02,0.03,0.98,0.67,0.79,-0.37
1849919,-0.02,0.03,0.98,0.67,0.98,-0.18
1849928,-0.02,0.02,0.98,0.67,1.10,-0.18
1849936,-0.01,0.02,0.98,0.79,1.04,-0.12
1849945,-0.01,0.02,0.98,0.79,0.85,-0.18
1849954,-0.01,0.02,0.98,0.67,0.85,-0.18
1849962,-0.01,0.02,0.98,0.49,0.79,-0.12
1849970,-0.01,0.02,0.98,0.49,0.73,0.06
1849980,-0.02,0.02,0.98,0.37,0.55,-0.12
1849988,-0.02,0.02,0.98,0.24,0.37,-0.12
1849996,-0.02,0.02,0.98,0.18,0.55,-0.06
1850005,-0.02,0.02,0.98,0.24,0.55,0.00
1850014,-0.02,0.02,0.98,0.06,0.61,0.00
1850022,-0.02,0.02,0.98,0.06,0.67,-0.06
1850031,-0.02,0.02,0.98,0.00,0.79,-0.24
1850039,-0.02,0.03,0.98,-0.06,0.73,-0.43
1850048,-0.02,0.03,0.99,0.06,0.85,-0.18
1850057,-0.02,0.03,0.99,0.12,0.85,-0.43
1850065,-0.01,0.04,0.99,0.24,0.79,-0.18
1850074,-0.01,0.03,0.99,0.49,0.79,-0.06
1850082,-0.01,0.04,0.99,0.43,0.67,-0.18
1850091,-0.01,0.03,0.99,0.67,0.67,-0.12
1850100,-0.01,0.03,0.99,0.73,0.73,-0.24
1850109,-0.02,0.03,0.99,0.79,0.55,-0.18
1850117,-0.02,0.03,0.98,0.92,0.85,-0.31
1850126,-0.02,0.02,0.98,0.85,0.67,-0.18
1850135,-0.02,0.02,0.98,0.92,0.55,-0.18
1850143,-0.02,0.02,0.98,0.79,0.61,-0.12
1850152,-0.02,0.02,0.98,0.85,0.79,-0.24
1850161,-0.02,0.02,0.98,0.85,0.85,-0.24
1850169,-0.02,0.02,0.98,0.73,0.92,-0.37
1850178,-0.02,0.02,0.98,0.61,0.92,-0.06
1850186,-0.01,0.02,0.98,0.67,0.85,-0.12
1850196,-0.01,0.01,0.98,0.55,0.98,-0.18
1850204,-0.01,0.01,0.98,0.37,0.98,-0.06
1850212,-0.02,0.02,0.99,0.24,0.85,-0.18
1850220,-0.02,0.02,0.98,0.00,0.73,-0.18
1850230,-0.02,0.02,0.98,0.06,0.73,-0.37
1850238,-0.02,0.02,0.98,0.12,0.73,-0.12
1850246,-0.02,0.03,0.98,0.31,0.98,-0.18
1850255,-0.01,0.03,0.98,0.18,0.98,-0.24
1850264,-0.01,0.03,0.99,0.12,1.22,-0.31
1850272,-0.01,0.03,0.99,0.31,1.10,-0.43
1850281,-0.01,0.04,0.99,0.49,0.92,-0.49
1850290,-0.01,0.03,0.99,0.61,0.92,-0.55
1850299,-0.01,0.03,0.99,0.61,0.79,-0.37
1850307,-0.01,0.03,0.99,0.73,0.55,-0.24
1850315,-0.01,0.03,0.99,0.85,0.73,-0.18
1850324,-0.02,0.02,0.98,0.73,0.85,-0.18
1850332,-0.02,0.02,0.98,0.73,0.55,-0.24
1850342,-0.02,0.01,0.98,0.61,0.55,-0.12
1850350,-0.01,0.01,0.98,0.67,0.61,-0.18
1850359,-0.02,0.01,0.98,0.67,0.49,-0.31
1850367,-0.02,0.02,0.98,0.55,0.43,-0.24
1850376,-0.02,0.02,0.98,0.43,0.31,-0.12
1850385,-0.02,0.02,0.98,0.18,0.61,0.00
1850393,-0.02,0.02,0.98,0.00,0.49,0.00
1850402,-0.02,0.02,0.98,-0.06,0.43,-0.06
1850410,-0.02,0.02,0.98,0.00,0.55,0.00
1850419,-0.02,0.02,0.98,0.06,0.85,0.12
1850428,-0.02,0.02,0.98,-0.12,0.79,-0.06
1850436,-0.02,0.03,0.98,0.00,0.98,-0.43
1850445,-0.02,0.03,0.98,0.06,1.10,-0.43
1850454,-0.02,0.04,0.99,0.12,1.04,-0.24
1850462,-0.02,0.04,0.99,0.12,0.98,-0.24
1850471,-0.01,0.04,0.99,0.31,1.16,-0.37
1850480,-0.01,0.04,0.99,0.31,1.22,-0.43
1850488,-0.01,0.04,0.99,0.31,1.22,-0.31
1850497,-0.01,0.03,0.99,0.61,1.16,-0.24
1850506,-0.01,0.03,0.99,0.79,0.98,-0.24
1850514,-0.01,0.03,0.99,0.92,0.85,-0.24
1850523,-0.01,0.03,0.99,0.85,0.73,-0.06
1850532,-0.01,0.02,0.98,0.85,0.73,0.06
1850540,-0.01,0.02,0.98,0.79,0.67,-0.06
1850548,-0.01,0.02,0.98,0.92,0.55,-0.24
1850557,-0.02,0.01,0.98,0.73,0.55,-0.31
1850565,-0.02,0.01,0.98,0.73,0.37,-0.37
1850574,-0.02,0.01,0.98,0.67,0.37,-0.24
1850582,-0.03,0.01,0.98,0.49,0.31,-0.18
1850592,-0.03,0.02,0.98,0.55,0.49,0.00
1850601,-0.02,0.02,0.98,0.31,0.61,0.06
1850609,-0.02,0.02,0.98,0.31,0.73,-0.06
1850617,-0.02,0.02,0.98,0.24,0.98,-0.24
1850627,-0.02,0.02,0.98,0.18,1.10,-0.12
1850635,-0.02,0.03,0.98,0.12,1.22,-0.12
1850643,-0.02,0.02,0.98,0.18,1.10,-0.06
1850652,-0.02,0.03,0.98,0.18,1.04,-0.12
1850661,-0.02,0.03,0.98,0.31,1.28,-0.37
1850671,-0.01,0.03,0.99,0.24,1.28,-0.31
1850678,-0.01,0.03,0.99,0.31,1.22,-0.37
1850686,-0.01,0.03,0.99,0.55,1.10,-0.31
1850696,-0.01,0.03,0.99,0.49,1.04,-0.31
1850704,-0.01,0.03,0.99,0.49,1.04,-0.18
1850713,-0.01,0.03,0.99,0.61,0.85,-0.31
1850721,-0.01,0.03,0.99,0.79,0.98,-0.18
1850729,-0.01,0.02,0.99,0.79,0.61,-0.18
1850738,-0.01,0.02,0.98,0.79,0.61,-0.18
1850746,-0.01,0.02,0.98,0.61,0.61,-0.24
1850755,-0.01,0.02,0.98,0.67,0.67,-0.12
1850765,-0.02,0.01,0.98,0.67,0.55,-0.18
1850773,-0.02,0.02,0.98,0.67,0.43,-0.24
1850782,-0.02,0.01,0.98,0.49,0.55,-0.24
1850789,-0.02,0.02,0.98,0.24,0.55,-0.06
1850798,-0.03,0.02,0.98,0.37,0.55,-0.18
1850807,-0.02,0.02,0.98,0.12,0.73,-0.18
1850816,-0.02,0.02,0.98,0.12,0.79,-0.06
1850824,-0.02,0.02,0.98,0.18,0.73,-0.06
1850832,-0.02,0.02,0.98,0.12,0.92,-0.06
1850842,-0.02,0.02,0.98,-0.18,1.04,-0.12
1850850,-0.02,0.03,0.98,0.00,1.22,-0.18
1850859,-0.01,0.03,0.99,0.06,1.16,-0.24
1850867,-0.01,0.03,0.99,0.00,1.10,-0.31
1850876,-0.01,0.04,0.99,0.12,1.10,-0.43
1850885,-0.01,0.04,0.99,0.37,0.98,-0.24
1850893,-0.01,0.04,0.99,0.37,0.73,-0.18
1850902,-0.01,0.03,0.99,0.67,0.61,-0.24
1850911,-0.01,0.03,0.99,0.79,0.73,-0.18
1850920,-0.01,0.03,0.99,0.73,0.67,-0.18
1850928,-0.01,0.02,0.98,0.92,0.61,-0.37
1850936,-0.02,0.02,0.98,0.92,0.61,-0.24
1850946,-0.02,0.02,0.98,0.79,0.55,-0.18
1850953,-0.02,0.02,0.98,0.73,0.49,-0.24
1850962,-0.02,0.02,0.98,0.85,0.43,-0.06
1850971,-0.03,0.02,0.98,0.79,0.67,-0.18
1850979,-0.03,0.01,0.98,0.61,0.92,0.00
1850988,-0.03,0.01,0.98,0.49,0.79,0.00
1850997,-0.02,0.01,0.98,0.43,0.85,0.06
1851005,-0.02,0.01,0.98,0.37,0.98,-0.06
1851014,-0.02,0.01,0.98,0.24,1.22,0.06
1851023,-0.01,0.01,0.98,0.18,1.10,0.12
1851031,-0.01,0.02,0.98,0.06,1.16,0.00
1851040,-0.01,0.02,0.98,-0.12,1.28,0.00
1851048,-0.01,0.02,0.99,-0.06,1.28,-0.06
1851057,-0.01,0.03,0.99,-0.12,1.22,-0.24
1851066,-0.01,0.03,0.99,-0.06,1.04,-0.37
1851075,-0.01,0.03,0.99,-0.06,1.10,-0.18
1851083,-0.01,0.03,0.99,0.12,0.85,-0.37
1851092,-0.01,0.04,0.99,0.18,0.67,-0.24
1851101,-0.01,0.04,0.99,0.37,0.61,-0.31
1851109,-0.01,0.03,0.99,0.67,0.31,-0.24
1851118,-0.01,0.03,0.99,0.73,0.37,-0.24
1851127,-0.01,0.03,0.99,0.67,0.31,-0.12
1851135,-0.02,0.03,0.98,0.79,0.43,-0.24
1851144,-0.02,0.02,0.98,0.98,0.37,-0.43
1851152,-0.02,0.02,0.98,0.85,0.24,-0.24
1851161,-0.02,0.02,0.98,0.85,0.49,-0.24
1851169,-0.03,0.02,0.98,0.73,0.49,-0.18
1851178,-0.03,0.01,0.98,0.73,0.43,-0.12
1851186,-0.03,0.01,0.98,0.73,0.55,-0.06
1851195,-0.03,0.01,0.97,0.49,0.73,0.00
1851204,-0.03,0.01,0.98,0.31,0.79,0.00
1851213,-0.02,0.01,0.98,0.18,1.16,-0.18
1851221,-0.02,0.02,0.98,0.18,1.22,-0.43
1851230,-0.02,0.02,0.98,0.37,1.10,-0.49
1851238,-0.01,0.03,0.99,0.43,1.16,-0.49
1851247,-0.01,0.03,0.99,0.37,1.16,-0.37
1851256,-0.01,0.03,0.99,0.18,1.40,-0.31
1851264,-0.01,0.03,0.99,0.49,1.16,-0.31
1851273,-0.01,0.03,0.99,0.49,0.98,-0.31
1851282,-0.01,0.03,0.99,0.49,1.04,-0.18
1851289,-0.01,0.03,0.99,0.61,0.73,-0.18
1851298,-0.01,0.03,0.99,0.73,0.67,-0.18
1851307,-0.01,0.03,0.99,0.79,0.73,-0.18
1851315,-0.01,0.02,0.99,0.79,0.61,-0.18
1851324,-0.01,0.02,0.98,0.92,0.73,-0.12
1851333,-0.01,0.02,0.98,0.92,0.49,-0.31
1851341,-0.01,0.02,0.98,0.92,0.49,-0.43
1851350,-0.02,0.02,0.98,0.79,0.55,-0.43
1851359,-0.02,0.02,0.98,0.79,0.43,-0.43
1851367,-0.02,0.02,0.98,0.79,0.31,-0.49
1851376,-0.02,0.02,0.98,0.61,0.43,-0.37
1851385,-0.03,0.02,0.98,0.55,0.37,-0.18
1851394,-0.03,0.01,0.98,0.55,0.55,-0.18
1851402,-0.03,0.01,0.98,0.61,0.67,0.06
1851411,-0.03,0.01,0.98,0.43,0.85,0.06
1851419,-0.03,0.01,0.98,0.31,0.85,-0.06
1851428,-0.02,0.01,0.98,0.18,1.10,0.00
1851437,-0.02,0.02,0.98,0.12,1.22,-0.12
1851445,-0.02,0.02,0.98,0.06,1.40,-0.31
1851454,-0.01,0.02,0.99,0.18,1.28,-0.12
1851462,-0.01,0.03,0.99,0.12,1.16,-0.24
1851471,-0.01,0.03,0.99,0.00,1.10,-0.24
1851480,-0.01,0.03,0.99,0.18,1.10,-0.43
1851488,-0.01,0.03,0.99,0.00,0.98,-0.55
1851497,-0.01,0.03,0.99,0.24,0.79,-0.49
1851506,-0.01,0.03,0.99,0.43,0.67,-0.31
1851514,-0.01,0.03,0.99,0.43,0.49,-0.24
1851523,-0.01,0.03,0.99,0.49,0.61,-0.31
1851531,-0.01,0.03,0.99,0.49,0.55,-0.31
1851540,-0.02,0.03,0.98,0.67,0.49,-0.24
1851549,-0.02,0.03,0.98,0.73,0.43,-0.18
1851557,-0.02,0.02,0.98,0.85,0.37,-0.24
1851566,-0.02,0.02,0.98,0.73,0.55,-0.12
1851575,-0.02,0.01,0.98,0.55,0.49,0.06
1851583,-0.02,0.01,0.98,0.49,0.24,0.06
1851592,-0.02,0.01,0.98,0.43,0.37,0.06
1851600,-0.02,0.01,0.98,0.18,0.55,-0.31
1851608,-0.02,0.02,0.98,0.24,0.49,-0.37
1851617,-0.02,0.02,0.98,0.12,0.43,-0.31
1851626,-0.02,0.02,0.98,0.00,0.67,-0.37
1851635,-0.02,0.02,0.98,0.24,0.85,-0.31
1851643,-0.02,0.03,0.98,0.12,0.98,-0.24
1851652,-0.02,0.03,0.98,0.12,0.92,-0.18
1851661,-0.02,0.03,0.98,0.12,0.79,-0.24
1851669,-0.02,0.03,0.99,0.31,0.98,-0.24
1851678,-0.01,0.03,0.99,0.24,1.04,-0.18
1851686,-0.01,0.03,0.99,0.24,1.04,-0.12
1851695,-0.01,0.03,0.99,0.37,0.92,-0.24
1851704,-0.01,0.03,0.99,0.49,0.85,-0.31
1851712,-0.01,0.03,0.99,0.49,0.73,-0.37
1851721,-0.01,0.03,0.99,0.61,0.85,-0.24
1851730,-0.01,0.03,0.99,0.67,0.55,-0.18
1851738,-0.01,0.03,0.99,0.67,0.67,-0.24
1851747,-0.01,0.02,0.98,0.67,0.67,-0.18
1851755,-0.01,0.02,0.98,0.73,0.67,-0.12
1851764,-0.01,0.01,0.98,0.61,0.43,-0.12
1851772,-0.02,0.01,0.98,0.43,0.43,-0.18
1851781,-0.02,0.01,0.98,0.49,0.37,-0.06
1851789,-0.02,0.01,0.98,0.49,0.55,0.00
1851799,-0.02,0.01,0.98,0.55,0.61,-0.12
1851807,-0.02,0.01,0.98,0.31,0.79,-0.18
1851815,-0.02,0.01,0.98,0.12,0.73,-0.06
1851825,-0.02,0.02,0.98,0.00,0.73,-0.12
1851833,-0.02,0.02,0.98,-0.18,0.92,-0.12
1851841,-0.02,0.03,0.98,-0.12,0.79,-0.31
1851850,-0.02,0.03,0.99,-0.06,0.73,-0.24
1851859,-0.02,0.03,0.99,0.00,0.85,-0.12
1851868,-0.01,0.03,0.99,0.00,0.98,-0.12
1851876,-0.01,0.03,0.99,0.24,0.85,-0.06
1851885,-0.01,0.03,0.99,0.12,0.79,-0.18
1851894,-0.01,0.03,0.99,0.43,0.79,-0.12
1851902,-0.01,0.03,0.99,0.49,0.79,-0.31
1851911,-0.01,0.03,0.99,0.43,0.61,-0.31
1851920,-0.01,0.03,0.99,0.55,0.79,-0.18
1851928,-0.01,0.03,0.99,0.55,0.73,-0.18
1851936,-0.01,0.03,0.99,0.61,0.73,-0.18
1851945,-0.02,0.03,0.99,0.61,0.61,-0.12
1851954,-0.02,0.03,0.98,0.67,0.55,-0.18
1851962,-0.02,0.02,0.98,0.67,0.61,-0.18
1851971,-0.02,0.02,0.98,0.79,0.55,-0.12
1851979,-0.02,0.02,0.98,0.55,0.49,0.00
1851989,-0.02,0.02,0.98,0.49,0.61,0.06
1851997,-0.02,0.02,0.98,0.73,0.67,0.00
1852005,-0.02,0.02,0.98,0.31,0.85,0.06
1852014,-0.02,0.01,0.98,0.31,0.92,0.00
1852023,-0.02,0.01,0.98,0.18,0.73,-0.06
1852031,-0.01,0.02,0.98,-0.06,0.79,-0.24
1852040,-0.01,0.02,0.98,0.12,0.92,-0.43
1852048,-0.02,0.03,0.99,0.12,0.79,-0.55
1852057,-0.02,0.03,0.99,0.06,0.98,-0.61
1852066,-0.02,0.03,0.99,0.24,0.79,-0.49
1852074,-0.01,0.04,0.99,0.43,0.85,-0.49
1852083,-0.01,0.03,0.99,0.43,0.73,-0.24
1852091,-0.01,0.04,0.99,0.55,0.73,-0.24
1852100,-0.01,0.03,0.99,0.67,0.85,-0.24
1852108,-0.01,0.03,0.99,0.79,0.79,-0.31
1852118,-0.01,0.03,0.99,0.79,0.67,-0.31
1852126,-0.01,0.02,0.98,0.79,0.67,-0.06
1852135,-0.01,0.02,0.98,0.79,0.85,-0.12
1852144,-0.01,0.02,0.98,0.73,0.61,-0.24
1852152,-0.02,0.02,0.98,0.79,0.43,-0.24
1852160,-0.02,0.02,0.98,0.67,0.49,-0.31
1852169,-0.02,0.01,0.98,0.67,0.37,-0.18
1852178,-0.02,0.02,0.98,0.55,0.37,-0.24
1852186,-0.03,0.02,0.98,0.55,0.61,-0.18
1852195,-0.03,0.02,0.98,0.49,0.61,-0.12
1852204,-0.03,0.02,0.98,0.24,0.67,-0.06
1852212,-0.02,0.02,0.98,0.31,0.85,0.06
1852221,-0.02,0.02,0.98,0.31,1.04,-0.06
1852229,-0.02,0.02,0.98,0.12,1.04,-0.18
1852238,-0.02,0.02,0.98,0.31,0.92,-0.24
1852246,-0.01,0.02,0.99,0.31,0.98,-0.31
1852256,-0.01,0.03,0.99,0.12,1.04,-0.37
1852264,-0.01,0.03,0.99,0.43,0.85,-0.24
1852273,-0.01,0.03,0.99,0.49,0.79,-0.24
1852282,-0.01,0.03,0.99,0.31,0.85,-0.37
1852290,-0.01,0.03,0.99,0.24,0.85,-0.31
1852299,-0.01,0.03,0.99,0.43,0.61,-0.49
1852307,-0.01,0.03,0.99,0.43,0.49,-0.31
1852316,-0.01,0.03,0.98,0.18,0.49,-0.12
1852324,-0.02,0.03,0.98,0.61,0.49,-0.24
1852333,-0.02,0.02,0.98,0.55,0.43,-0.18
1852342,-0.02,0.02,0.98,0.61,0.37,-0.06
1852350,-0.02,0.02,0.98,0.61,0.43,0.06
1852359,-0.02,0.02,0.98,0.37,0.55,0.18
1852367,-0.02,0.02,0.98,0.37,0.67,-0.06
1852376,-0.03,0.02,0.98,0.31,0.73,-0.24
1852384,-0.02,0.02,0.98,0.49,0.61,-0.18
1852393,-0.02,0.02,0.98,0.49,0.67,-0.24
1852402,-0.02,0.02,0.98,0.49,0.61,0.00
1852411,-0.02,0.02,0.98,0.24,1.10,-0.12
1852420,-0.02,0.02,0.98,0.18,1.16,-0.18
1852427,-0.01,0.02,0.98,0.43,1.10,-0.18
1852436,-0.01,0.02,0.98,0.37,1.16,-0.43
1852445,-0.01,0.03,0.98,0.31,1.10,-0.37
1852453,-0.02,0.03,0.99,0.37,1.10,-0.31
1852462,-0.01,0.03,0.99,0.43,1.04,-0.18
1852471,-0.01,0.03,0.99,0.43,0.98,-0.18
1852479,-0.01,0.02,0.99,0.49,0.73,-0.12
1852488,-0.01,0.02,0.99,0.37,0.79,-0.24
1852496,-0.01,0.02,0.99,0.43,0.67,-0.24
1852505,-0.01,0.02,0.99,0.37,0.67,-0.37
1852514,-0.01,0.02,0.98,0.43,0.61,-0.24
1852523,-0.01,0.03,0.99,0.49,0.49,-0.24
1852531,-0.01,0.02,0.98,0.61,0.49,-0.12
1852540,-0.02,0.02,0.99,0.49,0.43,-0.06
1852548,-0.02,0.02,0.98,0.37,0.43,-0.06
1852557,-0.02,0.02,0.98,0.43,0.61,-0.06
1852566,-0.02,0.02,0.98,0.31,0.37,-0.06
1852574,-0.03,0.02,0.98,0.37,0.55,0.00
1852583,-0.03,0.02,0.98,0.24,0.67,0.06
1852591,-0.03,0.02,0.98,0.18,0.73,-0.06
1852600,-0.03,0.02,0.98,0.00,0.85,-0.06
1852609,-0.02,0.02,0.98,0.06,1.04,-0.12
1852617,-0.02,0.02,0.98,0.12,1.22,-0.31
1852626,-0.02,0.03,0.99,0.06,1.16,-0.24
1852635,-0.02,0.03,0.99,0.18,1.10,-0.24
1852644,-0.01,0.03,0.99,0.18,1.10,-0.24
1852652,-0.01,0.03,0.99,0.18,1.28,-0.31
1852660,-0.01,0.03,0.99,0.49,1.22,-0.43
1852669,-0.01,0.03,0.99,0.67,1.04,-0.24
1852678,-0.01,0.03,0.99,0.67,1.22,-0.12
1852686,-0.01,0.03,0.99,0.73,1.10,-0.24
1852695,-0.01,0.02,0.99,0.98,0.55,-0.18
1852703,-0.01,0.02,0.98,0.79,0.73,-0.06
1852712,-0.01,0.02,0.98,0.67,0.61,-0.18
1852722,-0.01,0.02,0.98,0.73,0.61,-0.24
1852729,-0.01,0.02,0.98,0.67,0.61,-0.24
1852738,-0.02,0.02,0.98,0.55,0.37,-0.12
1852747,-0.02,0.02,0.98,0.43,0.49,-0.12
1852755,-0.02,0.02,0.98,0.37,0.67,0.00
1852764,-0.02,0.02,0.98,0.24,0.49,-0.06
1852773,-0.02,0.02,0.98,0.24,0.43,0.00
1852781,-0.02,0.02,0.98,0.24,0.61,-0.06
1852790,-0.03,0.02,0.98,-0.06,0.67,0.00
1852799,-0.03,0.02,0.98,0.06,0.67,0.18
1852807,-0.03,0.02,0.98,0.24,0.79,0.00
1852816,-0.02,0.03,0.98,0.24,1.04,0.00
1852824,-0.02,0.03,0.98,0.12,1.28,-0.12
1852833,-0.02,0.03,0.98,0.12,1.28,-0.24
1852842,-0.02,0.03,0.99,0.18,1.28,-0.12
1852850,-0.01,0.03,0.99,0.37,1.28,-0.18
1852859,-0.01,0.03,0.99,0.37,1.22,-0.37
1852868,-0.01,0.03,0.99,0.55,1.10,-0.43
1852876,-0.01,0.03,0.99,0.61,0.92,-0.61
1852885,-0.01,0.03,0.99,0.55,0.85,-0.43
1852893,-0.01,0.03,0.99,0.61,0.79,-0.31
1852902,-0.01,0.03,0.99,0.67,0.79,-0.24
1852910,-0.01,0.02,0.99,0.67,0.73,-0.24
1852919,-0.01,0.02,0.98,0.67,0.61,-0.24
1852928,-0.01,0.02,0.98,0.73,0.61,-0.24
1852937,-0.01,0.02,0.98,0.73,0.49,-0.31
1852946,-0.02,0.02,0.98,0.79,0.37,-0.49
1852954,-0.02,0.01,0.98,0.79,0.43,-0.18
1852963,-0.02,0.02,0.98,0.67,0.49,-0.24
1852971,-0.03,0.01,0.98,0.55,0.31,-0.06
1852980,-0.03,0.01,0.98,0.31,0.55,0.00
1852988,-0.02,0.01,0.98,0.18,0.55,0.06
1852997,-0.02,0.01,0.98,0.06,0.67,-0.12
1853005,-0.02,0.02,0.98,0.06,0.79,-0.12
1853014,-0.02,0.02,0.98,-0.06,0.85,-0.18
1853023,-0.02,0.03,0.98,-0.06,0.85,-0.24
1853031,-0.02,0.04,0.99,0.00,0.98,-0.37
1853040,-0.02,0.04,0.99,0.06,0.92,-0.31
1853049,-0.02,0.04,0.99,0.12,1.04,-0.24
1853057,-0.02,0.03,0.99,0.18,1.22,-0.24
1853066,-0.01,0.03,0.99,0.43,0.98,-0.31
1853075,-0.01,0.03,0.99,0.49,0.98,-0.24
1853083,-0.01,0.03,0.99,0.49,0.98,-0.37
1853092,-0.01,0.03,0.99,0.67,0.92,-0.43
1853100,-0.01,0.03,0.99,0.79,0.79,-0.43
1853109,-0.01,0.03,0.99,0.85,0.73,-0.43
1853118,-0.01,0.02,0.98,0.85,0.79,-0.31
1853126,-0.01,0.02,0.99,0.61,0.55,-0.31
1853135,-0.01,0.02,0.98,0.55,0.49,-0.24
1853143,-0.02,0.02,0.98,0.67,0.49,-0.24
1853152,-0.02,0.01,0.98,0.73,0.37,-0.24
1853161,-0.02,0.01,0.98,0.67,0.37,0.12
1853169,-0.02,0.01,0.98,0.55,0.49,-0.06
1853178,-0.02,0.01,0.98,0.37,0.55,-0.18
1853186,-0.02,0.01,0.98,0.18,0.49,-0.12
1853195,-0.02,0.01,0.98,-0.06,0.55,-0.18
1853204,-0.02,0.01,0.98,0.00,0.73,-0.18
1853212,-0.02,0.02,0.98,-0.18,0.92,-0.18
1853221,-0.02,0.02,0.98,-0.12,0.85,-0.12
1853229,-0.02,0.02,0.98,0.00,0.98,-0.24
1853238,-0.02,0.03,0.98,-0.12,1.04,-0.31
1853247,-0.02,0.03,0.99,-0.06,1.16,-0.55
1853255,-0.01,0.03,0.99,0.12,1.04,-0.37
1853264,-0.01,0.04,0.99,0.18,1.10,-0.37
1853272,-0.01,0.04,0.99,0.31,0.98,-0.24
1853281,-0.01,0.04,0.99,0.37,0.98,-0.24
1853290,-0.01,0.03,0.99,0.24,0.85,-0.18
1853298,-0.01,0.03,0.99,0.61,0.73,-0.18
1853308,-0.01,0.03,0.99,0.67,0.79,-0.12
1853316,-0.01,0.03,0.99,0.79,0.49,-0.12
1853325,-0.01,0.02,0.98,0.79,0.55,-0.31
1853334,-0.01,0.02,0.98,0.67,0.55,-0.24
1853342,-0.02,0.02,0.98,0.79,0.55,-0.12
1853351,-0.02,0.02,0.98,0.92,0.31,-0.06
1853359,-0.02,0.01,0.98,0.67,0.37,-0.06
1853368,-0.02,0.01,0.98,0.67,0.49,-0.12
1853376,-0.02,0.01,0.98,0.49,0.49,-0.18
1853385,-0.03,0.01,0.98,0.55,0.37,-0.12
1853394,-0.03,0.01,0.98,0.43,0.67,-0.06
1853403,-0.03,0.02,0.98,0.24,0.73,-0.18
1853411,-0.03,0.02,0.98,0.00,0.92,-0.18
1853420,-0.02,0.02,0.98,0.00,1.04,-0.18
1853428,-0.02,0.02,0.98,0.12,1.10,-0.24
1853437,-0.02,0.02,0.98,0.00,1.28,-0.18
1853446,-0.02,0.03,0.98,0.06,1.22,-0.18
1853454,-0.01,0.03,0.99,0.06,1.22,-0.31
1853463,-0.01,0.03,0.99,0.12,1.04,-0.37
1853471,-0.01,0.03,0.99,0.06,0.92,-0.43
1853480,-0.01,0.03,0.99,0.31,0.98,-0.43
1853489,-0.00,0.04,0.99,0.49,0.85,-0.31
1853497,-0.01,0.04,0.99,0.49,0.79,-0.12
1853506,-0.01,0.03,0.99,0.61,0.79,-0.37
1853515,-0.01,0.03,0.99,0.61,0.43,-0.24
1853523,-0.01,0.03,0.99,0.85,0.43,-0.24
1853532,-0.01,0.02,0.98,0.85,0.37,-0.06
1853540,-0.02,0.02,0.98,0.79,0.37,0.06
1853548,-0.02,0.02,0.98,0.67,0.37,-0.06
1853558,-0.02,0.01,0.98,0.85,0.43,-0.18
1853566,-0.02,0.01,0.98,0.85,0.37,-0.18
1853575,-0.02,0.01,0.98,0.55,0.49,-0.18
1853583,-0.03,0.01,0.98,0.61,0.49,-0.18
1853591,-0.03,0.01,0.98,0.37,0.61,-0.12
1853601,-0.03,0.02,0.98,0.43,0.67,-0.06
1853609,-0.03,0.02,0.98,0.18,0.85,-0.06
1853618,-0.02,0.02,0.98,0.06,0.85,-0.06
1853627,-0.02,0.02,0.98,0.00,0.98,-0.06
1853635,-0.02,0.02,0.98,0.00,1.10,-0.18
1853644,-0.02,0.03,0.98,0.12,1.16,-0.24
1853652,-0.01,0.03,0.98,0.12,1.28,-0.24
1853661,-0.01,0.03,0.99,0.12,1.28,-0.24
1853670,-0.01,0.03,0.99,0.31,1.22,-0.31
1853678,-0.01,0.03,0.99,0.43,1.10,-0.31
1853687,-0.00,0.03,0.99,0.37,0.98,-0.31
1853695,-0.00,0.03,0.99,0.49,0.85,-0.37
1853704,-0.01,0.03,0.99,0.49,0.61,-0.31
1853713,-0.01,0.03,0.99,0.67,0.49,-0.43
1853721,-0.01,0.03,0.99,0.73,0.55,-0.24
1853730,-0.01,0.03,0.99,0.79,0.43,-0.24
1853738,-0.01,0.02,0.98,0.92,0.43,-0.12
1853747,-0.02,0.02,0.98,0.85,0.31,-0.18
1853756,-0.02,0.01,0.98,0.85,0.18,-0.06
1853764,-0.02,0.01,0.98,0.67,0.43,0.06
1853773,-0.02,0.01,0.98,0.49,0.61,-0.06
1853781,-0.02,0.01,0.98,0.49,0.55,-0.12
1853790,-0.02,0.01,0.98,0.43,0.49,-0.24
1853799,-0.03,0.02,0.98,0.18,0.49,-0.12
1853807,-0.03,0.02,0.98,0.12,0.67,-0.18
1853816,-0.03,0.02,0.98,0.00,0.73,0.00
1853825,-0.02,0.02,0.98,-0.06,0.67,0.00
1853833,-0.02,0.03,0.98,0.00,0.92,0.00
1853842,-0.02,0.03,0.98,0.18,0.85,-0.06
1853850,-0.02,0.04,0.99,0.31,1.22,-0.18
1853859,-0.02,0.04,0.99,0.18,1.40,-0.06
1853868,-0.02,0.04,0.99,0.31,1.34,-0.18
1853876,-0.01,0.03,0.99,0.55,1.34,-0.18
1853885,-0.01,0.04,0.99,0.61,1.34,-0.55
1853893,-0.01,0.03,0.99,0.79,1.28,-0.61
1853902,-0.01,0.03,0.99,0.79,1.22,-0.49
1853910,-0.00,0.02,0.99,0.92,1.04,-0.37
1853919,0.00,0.02,0.99,0.85,0.92,-0.24
1853928,0.01,0.01,0.99,0.67,0.79,-0.06
1853937,0.00,0.01,0.99,0.79,0.55,-0.18
1853946,-0.00,0.01,0.99,0.73,0.24,-0.31
1853954,-0.01,0.01,0.98,0.55,0.18,-0.49
1853963,-0.02,0.02,0.98,0.61,0.06,-0.43
1853971,-0.03,0.01,0.98,0.43,0.00,-0.24
1853980,-0.03,0.02,0.97,0.12,-0.31,0.00
1853989,-0.03,0.01,0.97,0.12,0.00,0.18
1853997,-0.04,0.01,0.98,0.00,0.37,0.18
1854006,-0.03,0.01,0.97,0.00,0.43,-0.06
1854014,-0.04,0.02,0.98,-0.12,0.61,-0.24
1854023,-0.04,0.02,0.97,-0.31,1.04,-0.24
1854032,-0.03,0.03,0.98,-0.31,1.28,-0.24
1854040,-0.03,0.03,0.99,-0.18,1.40,-0.06
1854049,-0.02,0.04,0.99,0.06,1.40,-0.18
1854057,-0.01,0.03,0.99,0.06,1.28,-0.12
1854066,0.00,0.03,0.99,0.00,1.53,-0.12
1854074,0.00,0.03,1.00,0.37,1.34,-0.31
1854083,0.01,0.04,1.00,0.43,1.10,-0.67
1854092,0.00,0.04,1.00,0.67,0.92,-0.79
1854100,-0.00,0.05,0.99,0.79,0.67,-0.67
1854109,-0.01,0.04,0.99,0.98,0.49,-0.67
1854118,-0.01,0.04,0.99,1.10,0.49,-0.61
1854126,-0.02,0.03,0.98,1.16,0.31,-0.06
1854135,-0.02,0.02,0.98,1.10,0.31,0.12
1854143,-0.02,0.01,0.98,1.04,0.49,-0.06
1854152,-0.02,0.01,0.97,0.85,0.31,-0.06
1854161,-0.02,0.01,0.98,0.85,0.61,-0.24
1854170,-0.02,0.01,0.98,0.79,0.73,-0.49
1854178,-0.02,0.01,0.98,0.79,0.61,-0.49
1854187,-0.02,0.01,0.98,0.73,0.43,-0.31
1854196,-0.03,0.01,0.97,0.43,0.37,-0.12
1854204,-0.02,0.01,0.97,0.18,0.55,0.00
1854213,-0.02,0.01,0.98,0.12,0.73,0.18
1854221,-0.03,0.01,0.97,-0.18,0.79,0.00
1854230,-0.03,0.02,0.98,-0.24,0.92,-0.06
1854238,-0.03,0.02,0.98,-0.31,1.28,-0.18
1854247,-0.02,0.03,0.99,-0.31,1.46,-0.12
1854255,-0.02,0.03,0.99,-0.12,1.53,-0.12
1854264,-0.01,0.04,0.99,-0.24,1.40,0.00
1854273,-0.01,0.04,0.99,-0.18,1.34,-0.12
1854282,-0.00,0.04,1.00,0.18,1.34,-0.12
1854290,0.00,0.03,0.99,0.18,1.16,-0.18
1854299,0.00,0.04,0.99,0.43,0.92,-0.49
1854307,-0.00,0.04,0.99,0.73,0.73,-0.49
1854316,-0.00,0.03,0.99,0.73,0.73,-0.37
1854325,-0.01,0.03,0.99,0.79,0.73,-0.24
1854333,-0.01,0.03,0.99,0.85,0.49,-0.37
1854342,-0.01,0.03,0.98,0.79,0.43,-0.37
1854351,-0.01,0.02,0.98,0.73,0.37,-0.31
1854359,-0.02,0.02,0.99,0.98,0.18,-0.24
1854368,-0.02,0.02,0.98,0.92,0.12,-0.24
1854376,-0.02,0.02,0.98,0.73,0.31,-0.31
1854385,-0.03,0.02,0.98,0.85,0.24,-0.24
1854394,-0.03,0.01,0.98,0.79,0.43,-0.18
1854402,-0.04,0.02,0.97,0.55,0.61,-0.18
1854411,-0.03,0.01,0.97,0.55,0.79,0.00
1854419,-0.03,0.01,0.97,0.31,1.04,0.06
1854428,-0.03,0.01,0.97,0.43,1.22,0.06
1854436,-0.02,0.01,0.98,0.12,1.53,-0.12
1854445,-0.02,0.02,0.98,0.00,1.53,-0.31
1854454,-0.01,0.02,0.98,-0.06,1.46,-0.24
1854463,-0.01,0.03,0.99,-0.18,1.40,-0.31
1854471,-0.00,0.03,0.99,-0.12,1.22,-0.31
1854480,-0.00,0.03,0.99,-0.06,1.16,-0.37
1854489,0.00,0.03,0.99,0.00,1.16,-0.31
1854497,0.00,0.03,0.99,0.24,1.16,-0.43
1854506,-0.00,0.04,0.99,0.49,0.92,-0.55
1854514,-0.01,0.04,0.99,0.43,0.67,-0.24
1854523,-0.01,0.04,0.99,0.55,0.43,-0.18
1854532,-0.01,0.03,0.99,0.79,0.37,-0.06
1854540,-0.01,0.03,0.98,0.73,0.18,-0.06
1854549,-0.02,0.02,0.98,0.98,0.24,0.06
1854558,-0.02,0.02,0.98,0.98,0.31,0.06
1854566,-0.02,0.02,0.98,0.73,0.12,-0.12
1854575,-0.03,0.02,0.98,0.79,0.24,-0.12
1854583,-0.03,0.02,0.97,0.61,0.55,-0.12
1854592,-0.03,0.02,0.98,0.85,0.73,-0.12
1854601,-0.03,0.02,0.98,0.79,0.85,-0.12
1854609,-0.03,0.02,0.98,0.61,1.04,0.00
1854618,-0.02,0.02,0.98,0.37,1.10,-0.18
1854626,-0.02,0.02,0.98,0.43,1.10,-0.31
1854635,-0.01,0.02,0.98,0.24,1.22,-0.18
1854644,-0.02,0.02,0.98,0.24,1.22,-0.31
1854652,-0.02,0.03,0.99,0.18,1.22,-0.31
1854661,-0.01,0.03,0.99,0.12,1.16,-0.18
1854670,-0.01,0.03,0.99,0.18,1.10,-0.06
1854678,-0.01,0.02,0.99,0.31,0.92,-0.18
1854687,-0.01,0.02,0.99,0.37,1.04,-0.24
1854695,-0.01,0.02,0.99,0.31,1.10,-0.43
1854704,-0.00,0.03,0.99,0.37,0.92,-0.61
1854713,-0.01,0.03,0.99,0.49,0.49,-0.43
1854721,-0.01,0.03,0.99,0.43,0.61,-0.31
1854730,-0.01,0.03,0.99,0.55,0.43,-0.18
1854738,-0.01,0.03,0.99,0.55,0.31,-0.31
1854747,-0.01,0.02,0.98,0.61,0.43,-0.18
1854756,-0.02,0.02,0.98,0.67,0.37,-0.18
1854765,-0.02,0.02,0.98,0.61,0.12,-0.24
1854772,-0.02,0.02,0.98,0.49,0.18,-0.37
1854782,-0.03,0.02,0.98,0.43,0.43,-0.12
1854790,-0.03,0.02,0.98,0.49,0.43,0.00
1854799,-0.03,0.02,0.98,0.55,0.49,-0.06
1854807,-0.03,0.02,0.98,0.18,0.55,0.06
1854816,-0.03,0.02,0.98,0.24,0.67,0.06
1854824,-0.03,0.02,0.98,0.24,0.98,-0.06
1854833,-0.03,0.02,0.98,0.24,1.28,-0.06
1854842,-0.02,0.02,0.98,0.18,1.40,-0.24
1854850,-0.01,0.03,0.99,0.18,1.53,-0.31
1854859,-0.01,0.03,0.99,0.24,1.53,-0.61
1854867,-0.01,0.03,0.99,0.43,1.59,-0.61
1854876,-0.01,0.03,0.99,0.37,1.34,-0.61
1854885,-0.01,0.04,0.99,0.55,1.04,-0.43
1854894,-0.01,0.04,0.99,0.67,0.92,-0.31
1854903,-0.01,0.03,0.99,0.73,0.73,0.00
1854911,-0.01,0.02,0.99,0.49,0.85,0.12
1854920,-0.01,0.02,0.98,0.61,0.79,0.00
1854928,-0.01,0.01,0.98,0.73,0.85,0.00
1854937,-0.01,0.01,0.99,0.49,0.79,-0.18
1854945,-0.01,0.01,0.99,0.49,0.61,-0.43
1854953,-0.00,0.02,0.98,0.43,0.55,-0.24
1854963,-0.00,0.02,0.99,0.49,0.37,-0.37
1854972,-0.01,0.02,0.99,0.43,0.31,-0.49
1854980,-0.01,0.02,0.98,0.31,-0.06,-0.37
1854988,-0.02,0.02,0.98,0.18,-0.06,-0.31
1854997,-0.03,0.02,0.98,0.18,0.12,0.00
1855006,-0.04,0.02,0.98,0.06,0.24,0.06
1855015,-0.04,0.02,0.98,0.18,0.49,0.12
1855023,-0.04,0.02,0.98,0.31,0.73,-0.06
1855032,-0.03,0.02,0.98,0.12,0.92,-0.06
1855041,-0.02,0.03,0.98,0.12,1.04,-0.24
1855049,-0.02,0.03,0.99,0.31,1.16,-0.24
1855058,-0.01,0.03,0.98,0.37,1.04,-0.18
1855066,-0.01,0.03,0.99,0.31,1.04,-0.06
1855075,-0.01,0.03,0.99,0.24,0.98,0.12
1855083,-0.01,0.02,1.00,0.37,0.85,0.12
1855092,-0.02,0.03,0.97,0.49,0.67,0.12
1855100,-0.01,0.03,0.97,0.49,0.98,0.12
1855109,-0.02,0.02,0.99,0.55,1.59,-0.18
1855118,-0.02,0.02,0.99,0.73,1.22,-0.61
1855126,-0.02,0.03,0.98,0.92,1.04,-0.67
1855135,-0.01,0.03,0.98,0.92,1.10,-0.55
1855144,-0.01,0.03,0.99,0.73,1.22,-0.18
1855152,-0.01,0.02,0.99,0.85,1.10,0.00
1855161,-0.00,0.02,0.99,0.67,0.98,0.00
1855169,-0.00,0.01,0.98,0.43,0.67,0.06
1855178,-0.00,0.01,0.98,0.43,0.67,-0.06
1855187,-0.01,0.01,0.98,0.67,0.55,-0.18
1855196,-0.01,0.02,0.98,0.61,0.31,-0.31
1855204,-0.02,0.02,0.98,0.43,0.43,-0.18
1855213,-0.02,0.02,0.98,0.49,0.37,0.00
1855221,-0.02,0.02,0.98,0.18,0.49,0.12
1855230,-0.02,0.01,0.98,0.18,0.49,0.24
1855238,-0.02,0.01,0.98,0.00,0.49,0.12
1855247,-0.02,0.01,0.98,0.00,0.37,-0.06
1855256,-0.02,0.02,0.98,-0.06,0.67,-0.31
1855264,-0.02,0.03,0.98,0.06,0.98,-0.55
1855273,-0.03,0.04,0.98,0.06,0.98,-0.55
1855282,-0.02,0.04,0.99,0.06,0.92,-0.43
1855290,-0.02,0.04,0.99,0.18,1.10,-0.31
1855299,-0.02,0.03,0.99,0.24,1.10,-0.12
1855307,-0.02,0.03,0.99,0.49,1.16,-0.12
1855316,-0.01,0.03,0.99,0.55,1.04,-0.24
1855325,-0.01,0.03,0.99,0.67,0.98,-0.31
1855333,-0.01,0.02,0.99,0.79,0.85,-0.31
1855342,-0.01,0.02,0.99,0.79,0.79,-0.37
1855350,-0.01,0.02,0.99,0.85,0.55,-0.24
1855359,-0.01,0.02,0.98,0.92,0.55,-0.24
1855368,-0.01,0.02,0.98,0.73,0.61,-0.31
1855376,-0.01,0.02,0.98,0.67,0.49,-0.31
1855385,-0.01,0.02,0.99,0.67,0.49,-0.18
1855394,-0.02,0.02,0.98,0.55,0.31,-0.06
1855402,-0.02,0.02,0.98,0.43,0.12,-0.06
1855411,-0.03,0.02,0.98,0.31,0.37,-0.12
1855420,-0.03,0.02,0.98,0.37,0.55,0.00
1855428,-0.03,0.02,0.98,0.24,0.43,-0.06
1855437,-0.03,0.02,0.98,0.06,0.61,0.06
1855445,-0.02,0.02,0.97,0.06,0.85,0.00
1855454,-0.03,0.02,0.98,0.18,0.92,0.06
1855462,-0.02,0.02,0.99,0.06,1.22,0.00
1855471,-0.02,0.02,0.98,0.18,1.10,-0.31
1855480,-0.02,0.03,0.98,0.12,1.10,-0.43
1855488,-0.02,0.04,0.99,0.12,1.28,-0.49
1855497,-0.01,0.04,0.99,0.18,1.34,-0.49
1855506,-0.01,0.04,0.99,0.55,1.34,-0.24
1855514,-0.01,0.04,0.99,0.61,1.16,-0.06
1855523,-0.01,0.03,0.99,0.73,0.98,0.06
1855532,-0.01,0.03,0.98,0.85,0.98,0.18
1855542,-0.00,0.02,0.98,0.79,1.34,0.06
1855551,0.00,0.01,0.99,0.92,1.28,-0.12
1855559,0.01,0.01,0.99,0.98,1.04,-0.61
1855569,0.00,0.01,0.99,0.92,0.73,-0.67
1855578,-0.00,0.02,1.00,0.85,0.37,-0.55
1855587,-0.02,0.03,0.97,0.67,-0.31,-0.31
1855597,-0.03,0.03,0.98,0.61,-0.31,0.00
1855606,-0.04,0.02,0.98,0.49,0.12,0.43
1855615,-0.04,0.01,0.97,0.43,0.37,0.49
1855624,-0.04,0.00,0.97,0.12,0.85,-0.06
1855634,-0.03,0.02,0.97,0.06,1.16,-0.49
1855643,-0.02,0.02,0.98,-0.06,1.40,-0.55
1855653,-0.01,0.03,0.99,0.06,1.40,-0.49
1855663,-0.00,0.03,0.99,0.06,1.40,-0.37
1855671,-0.00,0.03,0.99,0.18,1.04,-0.37
1855678,0.00,0.03,0.99,0.24,0.85,-0.31
1855687,-0.00,0.03,0.99,0.18,0.85,-0.31
1855696,-0.01,0.03,0.99,0.31,0.55,-0.43
1855704,-0.02,0.04,0.99,0.49,0.61,-0.43
1855712,-0.03,0.04,0.98,0.61,0.73,-0.49
1855721,-0.03,0.04,0.99,0.61,0.73,-0.18
1855730,-0.03,0.03,0.98,0.49,0.79,-0.06
1855738,-0.02,0.03,0.98,0.67,0.92,-0.12
1855747,-0.02,0.02,0.98,0.67,1.04,-0.18
1855756,-0.01,0.02,0.98,0.73,1.22,-0.18
1855764,-0.01,0.02,0.98,0.98,1.28,-0.24
1855773,-0.01,0.02,0.99,0.85,1.04,-0.37
1855781,-0.00,0.02,0.99,0.79,0.92,-0.24
1855790,-0.00,0.02,0.99,0.73,0.92,-0.31
1855799,-0.01,0.01,0.98,0.73,0.79,-0.31
1855807,-0.01,0.02,0.98,0.43,0.61,-0.24
1855816,-0.02,0.02,0.98,0.55,0.55,-0.12
1855825,-0.02,0.02,0.98,0.24,0.49,0.12
1855833,-0.03,0.02,0.98,0.06,0.43,0.06
1855842,-0.03,0.02,0.98,0.06,0.43,0.06
1855851,-0.03,0.02,0.98,0.06,0.67,0.00
1855859,-0.02,0.02,0.98,0.00,0.85,0.00
1855868,-0.02,0.02,0.98,-0.18,1.04,-0.12
1855876,-0.02,0.03,0.98,-0.24,1.22,-0.31
1855885,-0.02,0.04,0.99,0.12,1.22,-0.49
1855894,-0.01,0.04,0.99,0.18,1.16,-0.43
1855902,-0.01,0.04,0.99,0.31,1.28,-0.37
1855911,-0.01,0.04,0.99,0.43,1.16,-0.37
1855920,-0.00,0.03,0.99,0.55,1.16,-0.24
1855928,-0.00,0.03,0.99,0.67,0.79,-0.31
1855937,-0.00,0.03,0.99,0.85,0.61,-0.24
1855946,-0.01,0.03,0.99,0.85,0.55,-0.06
1855955,-0.01,0.02,0.99,0.92,0.55,-0.12
1855962,-0.01,0.02,0.98,0.85,0.61,-0.12
1855971,-0.02,0.02,0.98,0.92,0.43,-0.24
1855979,-0.02,0.02,0.98,0.85,0.31,-0.18
1855988,-0.02,0.01,0.98,0.79,0.49,-0.18
1855998,-0.02,0.02,0.98,0.73,0.43,-0.12
1856006,-0.03,0.02,0.98,0.49,0.55,-0.18
1856014,-0.03,0.01,0.98,0.49,0.55,-0.24
1856023,-0.03,0.02,0.98,0.55,0.61,-0.37
1856031,-0.03,0.01,0.98,0.31,0.61,-0.18
1856040,-0.03,0.01,0.98,0.18,0.85,0.06
1856048,-0.02,0.01,0.98,0.06,1.04,0.31
1856058,-0.02,0.01,0.97,-0.06,1.04,0.55
1856067,-0.01,0.01,0.98,-0.24,1.28,0.61
1856075,-0.01,0.01,0.99,-0.24,1.28,0.31
1856083,-0.01,0.02,0.99,-0.43,1.34,-0.31
1856092,-0.02,0.04,0.99,-0.24,1.34,-0.98
1856100,-0.03,0.06,0.99,0.12,1.16,-1.22
1856109,-0.03,0.07,0.99,0.43,1.34,-1.16
1856118,-0.03,0.06,0.99,0.49,1.28,-0.67
1856126,-0.02,0.05,0.99,0.79,1.22,-0.24
1856135,-0.00,0.03,0.99,0.85,1.10,0.00
1856144,0.00,0.02,0.99,1.04,1.22,0.12
1856152,0.01,0.01,0.99,1.04,0.98,-0.18
1856161,0.01,0.01,0.99,1.22,0.79,-0.37
1856169,0.01,0.01,0.99,1.04,0.37,-0.61
1856178,0.00,0.01,0.99,0.98,0.18,-0.67
1856187,0.00,0.01,0.99,0.85,0.12,-0.67
1856196,-0.00,0.01,0.98,0.85,0.00,-0.61
1856204,-0.01,0.01,0.98,0.79,-0.43,-0.37
1856213,-0.02,0.01,0.97,0.67,-0.43,-0.24
1856221,-0.03,0.01,0.97,0.49,-0.55,0.06
1856230,-0.04,0.01,0.97,0.18,-0.31,0.06
1856239,-0.04,0.01,0.97,0.12,0.18,0.00
1856247,-0.04,0.01,0.97,-0.12,0.37,-0.18
1856256,-0.04,0.01,0.97,-0.31,0.55,-0.31
1856265,-0.04,0.02,0.97,-0.18,0.73,-0.18
1856273,-0.03,0.02,0.98,-0.43,1.04,-0.06
1856281,-0.02,0.03,0.98,-0.43,1.40,0.00
1856290,-0.02,0.03,0.99,-0.37,1.22,0.06
1856298,-0.01,0.03,0.99,-0.24,1.34,0.00
1856307,-0.01,0.03,0.99,-0.12,1.40,-0.24
1856316,-0.00,0.03,0.99,-0.06,1.65,-0.49
1856325,-0.00,0.04,1.00,-0.06,1.46,-0.49
1856333,-0.00,0.05,1.00,0.24,1.22,-0.55
1856342,0.00,0.05,1.00,0.61,0.92,-0.37
1856350,0.00,0.05,1.00,0.61,0.67,-0.12
1856359,0.00,0.04,1.00,0.73,0.43,-0.18
1856368,-0.00,0.03,0.99,0.98,0.18,-0.18
1856376,-0.00,0.02,0.99,1.04,0.06,-0.06
1856385,-0.01,0.02,0.99,1.04,-0.18,-0.24
1856393,-0.02,0.02,0.96,1.16,-0.43,-0.24
1856403,-0.03,0.01,0.98,0.92,0.06,-0.06
1856411,-0.03,0.01,0.98,0.85,0.37,0.06
1856420,-0.04,0.01,0.97,0.61,0.24,-0.06
1856429,-0.04,0.01,0.97,0.67,0.49,-0.18
1856437,-0.04,0.00,0.97,0.67,0.61,-0.12
1856445,-0.04,0.01,0.97,0.49,0.92,-0.24
1856454,-0.04,0.02,0.97,0.37,0.98,-0.24
1856463,-0.04,0.02,0.97,0.12,1.16,-0.31
1856471,-0.03,0.03,0.97,-0.12,1.46,-0.37
1856480,-0.03,0.03,0.98,0.06,2.08,-0.18
1856489,-0.02,0.03,0.99,0.12,2.32,0.00
1856497,-0.01,0.02,0.99,0.31,2.14,0.12
1856506,-0.00,0.02,0.99,0.12,1.95,0.06
1856515,0.00,0.02,0.99,0.18,1.89,-0.06
1856523,0.01,0.02,1.00,0.18,1.77,-0.18
1856532,0.01,0.03,0.99,0.18,1.34,-0.43
1856541,0.01,0.03,1.00,0.12,1.40,-0.37
1856549,0.01,0.04,1.00,0.43,0.85,-0.43
1856558,0.00,0.04,1.00,0.55,0.61,-0.37
1856566,0.00,0.04,0.99,0.61,0.37,-0.24
1856575,-0.00,0.03,0.99,0.55,0.12,-0.06
1856584,-0.01,0.03,0.99,0.67,-0.12,0.12
1856592,-0.01,0.02,0.98,0.73,-0.12,0.00
1856601,-0.01,0.01,0.98,0.98,-0.06,-0.24
1856609,-0.02,0.01,0.98,0.73,0.06,-0.24
1856618,-0.02,0.01,0.98,0.85,0.12,-0.24
1856627,-0.03,0.02,0.98,0.85,0.18,-0.37
1856636,-0.04,0.02,0.98,0.73,0.18,-0.37
1856644,-0.04,0.02,0.97,0.61,0.43,-0.37
1856653,-0.04,0.02,0.97,0.43,0.55,-0.24
1856661,-0.04,0.02,0.97,0.37,0.73,-0.12
1856670,-0.03,0.02,0.97,0.37,1.04,0.06
1856679,-0.03,0.02,0.98,0.24,1.16,0.00
1856687,-0.02,0.02,0.98,0.18,1.34,-0.12
1856696,-0.02,0.02,0.98,0.12,1.40,-0.31
1856704,-0.01,0.02,0.99,0.24,1.46,-0.18
1856713,-0.01,0.02,0.99,0.12,1.46,-0.18
1856722,-0.00,0.02,0.99,0.12,1.40,-0.24
1856730,-0.00,0.03,0.99,0.00,1.10,-0.12
1856738,0.00,0.03,0.99,0.37,1.04,-0.24
1856747,0.00,0.03,0.99,0.31,0.85,-0.31
1856756,0.00,0.03,0.99,0.24,0.67,-0.24
1856764,-0.00,0.03,0.99,0.37,0.55,-0.18
1856773,-0.00,0.03,0.99,0.43,0.24,-0.06
1856782,-0.01,0.03,0.99,0.37,0.12,-0.12
1856790,-0.01,0.03,0.99,0.55,0.00,-0.06
1856799,-0.01,0.03,0.98,0.55,0.12,-0.06
1856808,-0.02,0.02,0.98,0.73,0.06,-0.12
1856816,-0.02,0.02,0.98,0.79,0.12,-0.12
1856825,-0.03,0.02,0.98,0.85,-0.06,-0.12
1856833,-0.03,0.02,0.97,0.79,0.24,-0.12
1856843,-0.04,0.02,0.97,0.67,0.49,-0.12
1856850,-0.04,0.01,0.98,0.43,0.67,-0.12
1856859,-0.03,0.02,0.98,0.31,0.85,-0.12
1856868,-0.03,0.02,0.98,0.31,0.98,-0.37
1856876,-0.03,0.02,0.98,0.31,1.22,-0.24
1856885,-0.02,0.02,0.98,0.31,1.34,-0.18
1856894,-0.02,0.02,0.98,0.24,1.28,-0.37
1856902,-0.01,0.02,0.98,0.18,1.34,-0.24
1856911,-0.01,0.02,0.99,0.18,1.28,-0.31
1856920,-0.00,0.02,0.99,0.12,1.28,-0.31
1856929,-0.00,0.02,0.99,0.12,1.16,-0.31
1856937,-0.00,0.03,0.99,0.24,1.04,-0.18
1856946,-0.01,0.03,0.99,0.31,0.92,-0.43
1856954,-0.01,0.03,0.99,0.43,0.79,-0.55
1856962,-0.01,0.03,0.99,0.49,0.85,-0.55
1856971,-0.01,0.03,0.99,0.61,0.55,-0.49
1856980,-0.01,0.03,0.99,0.49,0.43,-0.31
1856988,-0.01,0.03,0.99,0.55,0.43,-0.12
1856997,-0.01,0.02,0.99,0.55,0.43,0.18
1857006,-0.01,0.02,0.98,0.61,0.31,0.24
1857014,-0.01,0.01,0.98,0.61,0.31,0.06
1857023,-0.02,0.01,0.98,0.73,-0.06,0.06
1857032,-0.02,0.01,0.98,0.55,0.18,0.06
1857040,-0.03,0.01,0.97,0.37,0.06,0.00
1857049,-0.03,0.02,0.97,0.43,0.24,-0.06
1857057,-0.03,0.01,0.98,0.37,0.55,0.00
1857066,-0.03,0.02,0.98,0.18,0.92,-0.18
1857075,-0.03,0.02,0.98,0.12,0.92,-0.24
1857084,-0.03,0.03,0.98,0.18,1.16,-0.43
1857092,-0.03,0.03,0.98,0.31,1.16,-0.43
1857101,-0.02,0.03,0.99,0.18,1.40,-0.31
1857110,-0.01,0.03,0.99,0.37,1.46,-0.24
1857118,-0.01,0.03,0.98,0.37,1.28,-0.12
1857127,-0.01,0.03,0.98,0.43,1.16,-0.06
1857136,-0.01,0.02,0.99,0.49,1.22,0.00
1857144,-0.01,0.02,0.99,0.43,1.46,0.00
1857153,-0.01,0.02,0.99,0.55,1.10,-0.18
1857161,-0.00,0.02,0.98,0.61,0.73,-0.31
1857170,-0.00,0.02,0.98,0.55,0.49,-0.18
1857179,-0.01,0.02,0.99,0.55,0.79,-0.18
1857187,-0.01,0.02,0.99,0.55,0.79,0.06
1857196,-0.01,0.02,0.99,0.49,0.67,0.12
1857204,-0.01,0.02,0.99,0.31,0.49,0.00
1857213,-0.01,0.02,0.98,0.31,0.37,-0.06
1857221,-0.02,0.02,0.98,0.55,0.49,-0.18
1857230,-0.02,0.02,0.99,0.18,0.49,-0.24
1857238,-0.02,0.02,0.98,0.31,0.24,-0.12
1857247,-0.02,0.02,0.98,0.31,0.24,-0.24
1857256,-0.02,0.02,0.98,0.31,0.43,-0.24
1857264,-0.03,0.03,0.98,0.18,0.55,-0.31
1857273,-0.03,0.03,0.98,0.00,0.67,-0.31
1857281,-0.03,0.03,0.98,0.18,0.79,-0.31
1857290,-0.03,0.03,0.98,0.37,0.67,-0.31
1857299,-0.02,0.03,0.98,0.43,0.85,-0.24
1857308,-0.02,0.03,0.98,0.55,1.10,-0.31
1857316,-0.03,0.04,0.98,0.67,1.10,-0.24
1857325,-0.02,0.03,0.99,0.55,1.22,-0.24
1857333,-0.02,0.03,0.99,0.61,1.34,-0.31
1857342,-0.02,0.02,0.98,0.79,1.34,-0.12
1857351,-0.01,0.02,0.98,0.61,1.28,-0.12
1857359,-0.00,0.01,0.99,0.79,1.04,-0.12
1857368,-0.00,0.01,0.99,0.67,1.16,-0.06
1857376,0.00,0.01,0.99,0.43,0.98,-0.18
1857385,0.00,0.02,0.99,0.37,0.79,-0.31
1857394,0.00,0.02,0.99,0.43,0.55,-0.24
1857402,0.00,0.02,0.99,0.43,0.31,-0.24
1857411,-0.01,0.02,0.98,0.31,0.00,-0.31
1857419,-0.01,0.02,0.98,0.24,0.12,-0.18
1857428,-0.03,0.02,0.98,0.31,-0.18,-0.18
1857437,-0.03,0.03,0.98,0.12,-0.18,-0.12
1857446,-0.04,0.03,0.98,0.18,0.12,-0.06
1857454,-0.04,0.03,0.98,0.12,0.55,0.18
1857463,-0.04,0.02,0.98,0.24,0.49,0.24
1857472,-0.03,0.02,0.98,0.24,0.73,0.12
1857480,-0.03,0.02,0.98,0.31,1.10,-0.12
1857489,-0.02,0.03,0.98,0.31,1.34,-0.37
1857497,-0.02,0.03,0.99,0.37,1.40,-0.37
1857506,-0.01,0.03,0.99,0.43,1.40,-0.31
1857515,-0.00,0.02,0.99,0.49,1.16,-0.37
1857523,0.00,0.02,0.99,0.49,1.04,-0.43
1857532,0.00,0.03,0.99,0.67,1.04,-0.37
1857540,-0.00,0.03,0.99,0.67,0.85,-0.37
1857549,-0.01,0.03,0.99,0.61,0.49,-0.31
1857557,-0.02,0.03,0.98,0.67,0.37,-0.12
1857566,-0.02,0.03,0.98,0.43,0.67,0.00
1857575,-0.02,0.02,0.98,0.73,0.61,0.06
1857583,-0.02,0.01,0.98,0.61,0.79,0.00
1857592,-0.02,0.01,0.98,0.67,0.92,-0.24
1857601,-0.01,0.01,0.98,0.73,0.92,-0.24
1857609,-0.02,0.01,0.98,0.61,0.73,-0.49
1857617,-0.02,0.02,0.99,0.61,0.79,-0.31
1857626,-0.01,0.02,0.98,0.61,0.79,-0.24
1857636,-0.01,0.02,0.98,0.31,0.61,-0.06
1857644,-0.01,0.01,0.98,0.24,0.49,0.12
1857653,-0.01,0.01,0.98,0.00,0.67,0.18
1857661,-0.02,0.02,0.98,0.12,0.49,0.18
1857670,-0.02,0.02,0.98,0.00,0.79,-0.06
1857679,-0.03,0.03,0.98,0.00,0.73,-0.18
1857687,-0.03,0.03,0.98,0.12,0.85,-0.37
1857696,-0.03,0.03,0.99,0.12,0.98,-0.37
1857705,-0.02,0.03,0.99,0.12,0.98,-0.24
1857713,-0.01,0.03,0.98,0.37,0.92,-0.12
1857722,-0.01,0.03,0.99,0.49,0.98,-0.18
1857730,-0.01,0.03,0.99,0.43,0.98,-0.24
1857739,-0.01,0.03,0.99,0.49,0.98,-0.24
1857748,-0.01,0.03,0.98,0.55,1.04,-0.31
1857756,-0.01,0.02,0.99,0.73,1.04,-0.18
1857764,-0.01,0.02,0.99,0.67,0.92,-0.18
1857773,-0.01,0.02,0.99,0.55,0.79,-0.31
1857781,-0.01,0.02,0.98,0.79,0.43,-0.43
1857790,-0.02,0.03,0.98,0.79,0.55,-0.61
1857799,-0.03,0.03,0.98,0.92,0.55,-0.55
1857808,-0.03,0.03,0.98,0.92,0.31,-0.31
1857816,-0.04,0.03,0.98,0.67,0.61,-0.18
1857825,-0.04,0.02,0.97,0.67,0.92,0.06
1857833,-0.03,0.02,0.98,0.67,1.10,0.37
1857842,-0.02,0.01,0.98,0.67,1.28,0.43
1857850,-0.02,0.01,0.98,0.55,1.53,0.18
1857860,-0.01,0.01,0.98,0.31,1.40,0.00
1857868,-0.01,0.01,0.98,0.37,1.46,-0.18
1857877,-0.00,0.02,0.99,0.37,1.59,-0.49
1857885,0.00,0.02,0.99,0.31,1.22,-0.49
1857894,0.00,0.02,0.99,0.12,1.04,-0.31
1857903,0.00,0.02,0.99,0.37,0.61,-0.12
1857911,0.00,0.03,0.98,0.43,0.49,-0.24
1857920,-0.00,0.02,0.99,0.18,0.61,-0.12
1857929,-0.01,0.03,1.00,0.12,0.49,-0.31
1857937,-0.02,0.03,0.98,0.37,0.31,-0.43
1857946,-0.02,0.03,0.98,0.49,0.18,-0.49
1857954,-0.03,0.03,0.98,0.37,0.24,-0.49
1857962,-0.03,0.03,0.98,0.43,0.49,-0.12
1857971,-0.03,0.03,0.98,0.43,0.49,-0.06
1857980,-0.03,0.02,0.98,0.37,0.73,-0.06
1857988,-0.02,0.02,0.98,0.43,0.79,-0.06
1857997,-0.02,0.02,0.98,0.49,0.92,-0.12
1858006,-0.01,0.02,0.98,0.61,0.85,-0.31
1858015,-0.01,0.02,0.99,0.55,0.92,-0.43
1858023,-0.01,0.02,0.99,0.55,0.98,-0.18
1858032,-0.01,0.02,0.99,0.61,0.67,0.06
1858041,-0.01,0.02,0.98,0.55,0.61,0.06
1858049,-0.01,0.02,0.98,0.31,0.49,0.06
1858058,-0.01,0.02,0.98,0.24,0.43,-0.12
1858066,-0.02,0.02,0.98,0.24,0.61,-0.12
1858075,-0.02,0.02,0.98,0.24,0.49,-0.31
1858084,-0.02,0.03,0.98,0.06,0.67,-0.24
1858093,-0.02,0.03,0.98,0.24,0.73,-0.06
1858100,-0.02,0.03,0.98,0.12,0.67,0.18
1858109,-0.02,0.02,0.98,-0.12,0.67,0.67
1858118,-0.01,0.01,0.98,0.06,0.79,0.49
1858127,-0.01,0.01,0.98,0.00,0.85,0.18
1858136,-0.02,0.02,0.98,0.24,0.79,-0.31
1858144,-0.02,0.03,0.98,0.31,0.98,-0.79
1858153,-0.03,0.04,0.99,0.24,0.85,-0.85
1858161,-0.03,0.05,0.99,0.37,0.98,-0.85
1858170,-0.02,0.05,0.99,0.55,1.16,-0.61
1858179,-0.02,0.04,0.99,0.73,1.22,-0.31
1858187,-0.01,0.04,0.99,0.92,1.16,-0.24
1858196,-0.01,0.03,0.99,0.98,1.22,-0.12
1858205,-0.01,0.02,0.99,0.98,1.04,-0.06
1858213,-0.01,0.02,0.99,0.98,0.98,-0.24
1858222,-0.02,0.02,0.98,1.04,0.73,-0.18
1858231,-0.02,0.02,0.98,0.98,0.67,0.18
1858239,-0.02,0.02,0.98,0.85,0.61,0.18
1858248,-0.02,0.00,0.98,0.67,0.67,0.49
1858256,-0.02,0.00,0.98,0.67,0.55,0.24
1858264,-0.01,-0.00,0.98,0.61,0.67,0.00
1858273,-0.02,0.00,0.98,0.31,0.85,-0.37
1858282,-0.02,0.02,0.95,0.43,0.61,-0.43
1858290,-0.02,0.01,0.99,0.18,1.34,-0.31
1858299,-0.01,0.02,1.00,0.06,1.40,-0.31
1858308,-0.01,0.02,0.98,0.37,0.98,-0.55
1858316,-0.01,0.02,0.98,0.12,1.16,-0.55
1858325,-0.00,0.03,0.99,0.00,1.22,-0.55
1858334,-0.01,0.03,0.99,0.06,1.10,-0.37
1858342,-0.00,0.03,1.00,0.24,0.92,-0.31
1858351,-0.00,0.03,0.99,-0.12,0.55,-0.12
1858359,-0.00,0.03,0.99,-0.06,0.31,-0.12
1858368,-0.01,0.02,0.99,0.31,0.43,0.00
1858377,-0.01,0.03,0.99,0.43,0.18,-0.24
1858385,-0.02,0.03,0.99,0.43,0.06,-0.37
1858394,-0.02,0.04,0.98,0.49,0.06,-0.43
1858403,-0.03,0.04,0.98,0.67,0.18,-0.37
1858411,-0.03,0.04,0.98,0.55,0.37,0.00
1858420,-0.04,0.03,0.98,0.61,0.24,0.24
1858428,-0.03,0.02,0.98,0.67,0.43,0.31
1858437,-0.03,0.01,0.97,0.61,0.49,0.24
1858446,-0.03,0.01,0.97,0.55,0.79,0.24
1858454,-0.03,0.01,0.98,0.49,1.10,0.00
1858463,-0.02,0.01,0.98,0.61,1.22,-0.18
1858472,-0.02,0.02,0.98,0.37,1.28,-0.43
1858480,-0.02,0.02,0.98,0.31,1.53,-0.43
1858489,-0.02,0.03,0.98,0.18,1.34,-0.43
1858498,-0.01,0.03,0.99,0.37,1.28,-0.49
1858506,-0.01,0.03,0.99,0.37,1.46,-0.31
1858515,-0.01,0.03,0.99,0.37,1.34,-0.37
1858523,-0.00,0.03,0.99,0.37,1.16,-0.31
1858531,0.00,0.02,0.99,0.67,1.28,-0.12
1858540,0.00,0.02,0.99,0.55,0.79,-0.24
1858550,0.00,0.02,0.99,0.55,0.67,-0.31
1858558,0.00,0.02,0.99,0.37,0.43,-0.12
1858567,-0.01,0.02,0.99,0.49,0.18,-0.12
1858575,-0.01,0.02,0.98,0.43,0.06,-0.49
1858584,-0.02,0.02,0.98,0.49,-0.06,-0.43
1858592,-0.02,0.02,0.98,0.55,0.12,-0.31
1858601,-0.03,0.02,0.98,0.43,0.06,-0.37
1858610,-0.03,0.03,0.98,0.49,0.31,-0.31
1858619,-0.03,0.02,0.98,0.37,0.31,-0.18
1858627,-0.03,0.02,0.98,0.43,0.49,-0.18
1858635,-0.03,0.02,0.98,0.31,0.61,-0.12
1858644,-0.03,0.02,0.98,0.24,0.79,0.00
1858653,-0.03,0.02,0.98,0.37,0.92,-0.12
1858662,-0.03,0.02,0.98,0.24,1.22,-0.12
1858670,-0.03,0.02,0.98,0.43,1.22,-0.31
1858678,-0.02,0.03,0.98,0.43,1.53,-0.12
1858687,-0.02,0.03,0.99,0.37,1.65,-0.18
1858695,-0.01,0.03,0.99,0.31,1.46,-0.12
1858704,-0.01,0.03,0.99,0.49,1.34,-0.12
1858713,0.00,0.03,0.99,0.61,1.34,-0.12
1858722,0.00,0.03,0.99,0.49,1.10,-0.18
1858731,0.00,0.03,0.99,0.55,0.98,-0.31
1858739,0.00,0.03,0.99,0.67,0.98,-0.49
1858747,-0.00,0.02,0.99,0.67,0.67,-0.31
1858756,-0.01,0.02,0.99,0.79,0.37,-0.37
1858764,-0.01,0.02,0.98,0.73,0.37,-0.31
1858773,-0.01,0.02,0.98,0.67,0.37,-0.37
1858781,-0.02,0.02,0.98,0.49,0.37,-0.31
1858790,-0.02,0.02,0.98,0.43,0.31,-0.18
1858799,-0.02,0.02,0.98,0.37,0.24,-0.31
1858808,-0.02,0.02,0.98,0.31,0.24,-0.12
1858816,-0.02,0.02,0.98,0.24,0.31,0.00
1858825,-0.02,0.02,0.98,0.24,0.43,-0.12
1858833,-0.03,0.02,0.98,0.31,0.49,-0.06
1858842,-0.03,0.02,0.98,0.31,0.55,0.00
1858851,-0.03,0.02,0.98,0.24,0.73,-0.18
1858859,-0.03,0.03,0.98,0.18,0.92,-0.06
1858868,-0.03,0.03,0.98,0.18,1.16,-0.12
1858877,-0.03,0.03,0.98,0.24,1.16,-0.18
1858885,-0.02,0.03,0.98,0.12,1.22,0.06
1858894,-0.02,0.03,0.99,0.24,1.40,0.00
1858902,-0.01,0.03,0.99,0.31,1.40,-0.12
1858911,-0.01,0.03,0.99,0.43,1.40,-0.18
1858919,-0.01,0.03,0.99,0.49,1.28,-0.24
1858928,-0.00,0.03,0.99,0.61,1.46,-0.31
1858937,0.00,0.03,0.99,0.43,1.28,-0.43
1858945,0.00,0.03,0.99,0.61,1.04,-0.24
1858955,0.00,0.02,0.99,0.73,0.73,-0.43
1858963,0.00,0.02,0.99,0.67,0.49,-0.43
1858972,-0.01,0.02,0.99,0.67,0.31,-0.37
1858980,-0.01,0.02,0.98,0.73,0.37,-0.18
1858989,-0.02,0.02,0.98,0.92,-0.06,-0.24
1858998,-0.02,0.02,0.98,0.67,0.06,-0.12
1859006,-0.03,0.01,0.98,0.73,0.24,-0.18
1859015,-0.02,0.01,0.98,0.55,0.49,-0.31
1859023,-0.03,0.01,0.98,0.49,0.37,-0.37
1859031,-0.03,0.02,0.98,0.49,0.49,-0.24
1859040,-0.03,0.02,0.98,0.24,0.43,-0.18
1859049,-0.03,0.02,0.98,0.18,0.67,-0.18
1859057,-0.02,0.02,0.98,0.24,0.67,-0.12
1859066,-0.02,0.02,0.98,0.24,0.73,0.12
1859076,-0.02,0.02,0.98,0.06,0.79,-0.06
1859083,-0.02,0.02,0.98,-0.06,1.04,-0.31
1859092,-0.03,0.03,0.98,0.00,1.16,-0.31
1859101,-0.02,0.03,0.98,0.06,1.40,-0.31
1859109,-0.02,0.03,0.99,0.24,1.46,-0.12
1859118,-0.02,0.03,0.99,0.37,1.34,-0.31
1859127,-0.01,0.03,0.99,0.31,1.46,-0.31
1859135,-0.01,0.03,0.99,0.43,1.34,-0.06
1859144,-0.00,0.03,0.99,0.61,1.34,0.06
1859153,0.00,0.03,0.99,0.67,1.34,-0.24
1859161,0.00,0.03,0.99,0.73,1.04,-0.24
1859170,-0.00,0.03,0.99,0.73,0.85,-0.18
1859179,0.00,0.02,0.99,0.79,0.85,-0.31
1859187,-0.00,0.02,0.99,0.85,0.37,-0.18
1859196,-0.00,0.02,0.99,0.79,0.37,-0.37
1859204,-0.01,0.02,0.99,0.98,0.06,-0.31
1859213,-0.01,0.02,0.98,0.79,0.24,-0.31
1859222,-0.02,0.02,0.98,0.55,0.00,-0.31
1859230,-0.02,0.02,0.98,0.55,-0.12,-0.37
1859238,-0.03,0.02,0.98,0.31,0.06,-0.06
1859247,-0.04,0.02,0.98,0.24,0.37,0.06
1859256,-0.04,0.02,0.97,0.31,0.49,-0.06
1859264,-0.04,0.02,0.97,0.18,0.61,0.00
1859274,-0.03,0.01,0.97,0.12,0.79,0.18
1859282,-0.03,0.02,0.98,0.06,0.92,0.12
1859291,-0.02,0.02,0.98,-0.06,1.22,0.00
1859299,-0.02,0.02,0.98,-0.06,1.40,-0.12
1859308,-0.02,0.02,0.98,0.00,1.46,-0.24
1859317,-0.01,0.03,0.99,-0.12,1.40,-0.55
1859325,-0.01,0.03,0.99,-0.18,1.46,-0.55
1859334,-0.00,0.03,0.99,0.00,1.46,-0.18
1859343,-0.00,0.04,0.99,0.00,1.34,-0.12
1859351,-0.00,0.04,0.99,0.24,1.22,-0.24
1859359,-0.00,0.04,0.99,0.55,1.04,-0.24
1859368,-0.00,0.03,0.99,0.67,0.79,-0.12
1859376,-0.00,0.03,0.99,0.79,0.43,-0.06
1859385,-0.00,0.03,0.99,0.92,0.43,-0.06
1859394,-0.01,0.02,0.99,0.79,0.31,-0.24
1859402,-0.01,0.02,0.98,0.79,0.18,-0.18
1859412,-0.01,0.02,0.98,0.79,0.12,-0.12
1859420,-0.02,0.02,0.98,1.04,0.18,-0.24
1859428,-0.02,0.02,0.98,0.73,0.18,-0.43
1859438,-0.03,0.02,0.98,0.61,0.18,-0.37
1859445,-0.04,0.02,0.98,0.73,0.24,-0.24
1859454,-0.04,0.02,0.97,0.67,0.31,0.00
1859464,-0.03,0.02,0.98,0.61,0.37,0.12
1859472,-0.03,0.01,0.97,0.37,0.67,0.00
1859481,-0.03,0.01,0.97,0.12,0.79,0.06
1859489,-0.02,0.01,0.98,0.12,0.92,0.00
1859498,-0.02,0.02,0.98,0.18,1.16,-0.18
1859506,-0.02,0.02,0.98,0.00,1.34,-0.43
1859515,-0.02,0.03,0.98,0.06,1.59,-0.31
1859523,-0.01,0.03,0.99,0.12,1.59,-0.31
1859532,-0.01,0.03,0.99,0.06,1.28,-0.24
1859541,-0.00,0.03,0.99,0.31,1.34,-0.31
1859549,0.00,0.03,0.99,0.24,1.16,-0.12
1859558,0.00,0.03,0.99,0.31,1.10,-0.12
1859567,0.00,0.03,0.99,0.37,0.85,-0.37
1859575,-0.00,0.03,0.99,0.43,0.55,-0.24
1859584,-0.00,0.03,0.99,0.49,0.55,-0.12
1859592,-0.01,0.02,0.99,0.79,0.43,-0.18
1859601,-0.01,0.02,0.99,0.67,0.31,-0.18
1859610,-0.01,0.02,0.98,0.61,0.43,-0.18
1859618,-0.02,0.02,0.98,0.73,0.24,-0.18
1859627,-0.02,0.02,0.98,0.49,0.24,-0.18
1859636,-0.02,0.02,0.98,0.49,0.43,-0.31
1859644,-0.03,0.02,0.98,0.49,0.31,-0.37
1859653,-0.03,0.02,0.98,0.49,0.55,-0.18
1859662,-0.03,0.02,0.98,0.43,0.55,-0.18
1859670,-0.03,0.02,0.98,0.43,0.55,-0.18
1859679,-0.03,0.02,0.98,0.49,0.61,-0.06
1859687,-0.03,0.02,0.98,0.43,0.92,-0.12
1859695,-0.03,0.02,0.98,0.18,1.22,-0.06
1859704,-0.03,0.02,0.98,0.18,1.28,0.00
1859714,-0.02,0.03,0.98,0.24,1.46,-0.12
1859721,-0.01,0.03,0.99,0.24,1.77,-0.24
1859731,-0.01,0.03,0.99,0.12,1.77,-0.24
1859738,-0.00,0.03,0.99,0.31,1.65,-0.24
1859747,0.00,0.03,0.99,0.43,1.46,-0.24
1859756,0.00,0.03,0.99,0.49,1.10,-0.31
1859764,0.00,0.03,0.99,0.37,0.73,-0.49
1859773,0.00,0.03,0.99,0.61,0.49,-0.49
1859782,0.00,0.03,0.99,0.61,0.37,-0.49
1859791,-0.00,0.03,0.99,0.61,0.06,-0.31
1859800,-0.01,0.03,0.98,0.67,0.00,-0.31
1859807,-0.02,0.02,0.98,0.73,0.12,-0.24
1859816,-0.02,0.02,0.98,0.67,0.06,-0.12
1859825,-0.03,0.02,0.98,0.61,0.18,-0.06
1859833,-0.03,0.02,0.98,0.73,0.31,-0.06
1859842,-0.03,0.01,0.98,0.55,0.55,-0.06
1859851,-0.03,0.01,0.98,0.37,0.61,-0.18
1859859,-0.03,0.01,0.98,0.37,0.55,-0.18
1859868,-0.02,0.01,0.98,0.31,0.92,-0.31
1859877,-0.02,0.02,0.98,0.18,0.85,-0.12
1859885,-0.02,0.02,0.98,0.24,0.85,-0.31
1859894,-0.02,0.02,0.98,0.18,0.98,-0.12
1859903,-0.02,0.02,0.98,0.12,0.98,-0.06
1859911,-0.02,0.03,0.98,0.06,1.04,-0.24
1859920,-0.02,0.03,0.98,0.12,0.92,-0.24
1859929,-0.02,0.03,0.99,0.12,1.10,-0.24
1859937,-0.02,0.03,0.99,0.24,1.16,-0.12
1859946,-0.01,0.03,0.99,0.37,1.34,0.00
1859954,-0.01,0.03,0.99,0.43,1.16,0.00
1859963,-0.01,0.03,0.99,0.61,1.10,0.00
1859972,-0.00,0.03,0.99,0.73,0.92,-0.31
1859980,-0.01,0.03,0.99,0.67,1.04,-0.31
1859989,-0.00,0.02,0.99,0.61,0.79,-0.37
1859997,-0.01,0.02,0.99,0.61,0.67,-0.43
1860006,-0.01,0.02,0.99,0.79,0.61,-0.31
1860015,-0.01,0.02,0.99,0.73,0.31,-0.18
1860023,-0.01,0.02,0.98,0.55,0.37,-0.31
1860032,-0.02,0.02,0.98,0.61,0.37,-0.31
1860041,-0.02,0.02,0.98,0.67,0.12,-0.18
1860049,-0.03,0.02,0.98,0.55,0.24,-0.12
1860058,-0.03,0.01,0.98,0.55,0.18,0.06
1860066,-0.03,0.01,0.97,0.43,0.31,0.06
1860075,-0.03,0.01,0.98,0.06,0.49,0.18
1860083,-0.03,0.01,0.98,0.00,0.67,0.00
1860092,-0.02,0.01,0.98,0.00,0.85,-0.06
1860101,-0.02,0.02,0.98,-0.06,0.92,-0.18
1860109,-0.02,0.02,0.98,0.00,0.92,-0.43
1860118,-0.02,0.03,0.98,0.06,0.98,-0.43
1860127,-0.02,0.03,0.99,-0.12,1.28,-0.31
1860135,-0.01,0.03,0.99,-0.06,1.28,-0.43
1860144,-0.01,0.03,0.99,0.06,1.22,-0.31
1860153,-0.01,0.04,0.99,0.37,1.22,-0.24
1860162,-0.00,0.03,0.99,0.49,1.10,-0.37
1860170,-0.00,0.03,0.99,0.37,1.10,-0.24
1860179,-0.00,0.03,0.99,0.61,0.92,-0.31
1860187,-0.01,0.03,0.99,0.85,0.73,-0.24
1860196,-0.01,0.03,0.99,0.85,0.55,-0.31
1860205,-0.02,0.03,0.99,0.98,0.49,-0.37
1860213,-0.02,0.03,0.98,1.10,0.31,-0.31
1860222,-0.02,0.02,0.98,1.10,0.43,-0.06
1860231,-0.02,0.01,0.98,0.92,0.61,-0.18
1860239,-0.02,0.01,0.98,0.92,0.49,-0.18
1860248,-0.02,0.01,0.98,0.73,0.37,-0.24
1860257,-0.02,0.01,0.98,0.55,0.43,-0.24
1860265,-0.03,0.01,0.98,0.49,0.55,-0.31
1860273,-0.03,0.01,0.98,0.31,0.55,-0.12
1860282,-0.03,0.01,0.98,0.37,0.73,-0.12
1860290,-0.03,0.01,0.98,0.12,0.85,0.00
1860300,-0.02,0.01,0.98,0.00,1.04,0.06
1860307,-0.02,0.01,0.98,-0.12,1.22,0.00
1860316,-0.01,0.02,0.98,-0.06,1.10,-0.06
1860325,-0.01,0.02,0.98,0.06,1.16,-0.12
1860333,-0.01,0.03,0.99,0.00,1.16,-0.37
1860342,-0.01,0.03,0.99,-0.12,1.22,-0.31
1860351,-0.01,0.04,0.99,-0.12,1.10,-0.43
1860359,-0.01,0.04,0.99,0.12,1.16,-0.37
1860368,-0.01,0.03,0.99,0.12,0.92,-0.18
1860377,-0.01,0.03,0.99,0.31,0.79,-0.37
1860385,-0.01,0.03,0.99,0.49,0.67,-0.12
1860394,-0.01,0.03,0.99,0.55,0.43,-0.18
1860403,-0.01,0.03,0.99,0.67,0.49,-0.24
1860411,-0.01,0.03,0.99,0.73,0.55,-0.37
1860420,-0.02,0.03,0.98,0.73,0.49,-0.31
1860429,-0.02,0.02,0.98,0.61,0.43,-0.18
1860437,-0.02,0.02,0.98,0.73,0.49,0.00
1860446,-0.02,0.01,0.98,0.79,0.49,-0.18
1860455,-0.02,0.01,0.98,0.79,0.49,-0.18
1860463,-0.02,0.01,0.98,0.55,0.55,-0.31
1860472,-0.03,0.01,0.98,0.55,0.67,-0.12
1860481,-0.03,0.01,0.98,0.55,0.73,-0.24
1860489,-0.03,0.02,0.98,0.31,0.79,-0.18
1860498,-0.03,0.02,0.98,0.37,0.85,0.06
1860507,-0.02,0.02,0.98,0.18,0.98,0.18
1860515,-0.02,0.02,0.98,0.06,1.16,0.00
1860524,-0.02,0.02,0.98,-0.06,1.28,-0.24
1860533,-0.02,0.03,0.98,0.00,1.34,-0.37
1860540,-0.01,0.03,0.99,0.18,1.34,-0.24
1860550,-0.01,0.03,0.99,0.18,1.46,-0.24
1860557,-0.01,0.03,0.99,0.24,1.10,-0.31
1860567,-0.01,0.03,0.99,0.67,1.04,-0.31
1860575,-0.00,0.03,0.99,0.49,0.98,-0.31
1860583,-0.00,0.03,0.99,0.43,0.98,-0.24
1860592,-0.00,0.02,0.99,0.73,0.85,-0.24
1860601,-0.00,0.03,0.99,0.61,0.67,-0.12
1860609,-0.01,0.02,0.99,0.73,0.43,-0.37
1860618,-0.01,0.02,0.99,0.79,0.43,-0.43
1860627,-0.01,0.02,0.98,0.73,0.49,-0.18
1860635,-0.02,0.02,0.98,0.73,0.55,-0.24
1860644,-0.02,0.02,0.98,0.79,0.43,-0.18
1860652,-0.02,0.02,0.98,0.85,0.31,-0.06
1860661,-0.03,0.02,0.98,0.61,0.37,-0.06
1860670,-0.03,0.02,0.98,0.55,0.49,0.06
1860678,-0.03,0.01,0.98,0.61,0.61,0.18
1860687,-0.03,0.01,0.98,0.43,0.79,0.06
1860696,-0.03,0.01,0.98,0.43,0.79,0.06
1860704,-0.02,0.02,0.98,0.06,0.85,-0.06
1860713,-0.02,0.02,0.98,0.31,0.85,-0.06
1860721,-0.02,0.02,0.99,0.31,1.28,-0.12
1860730,-0.02,0.03,0.98,0.12,1.22,-0.24
1860739,-0.02,0.03,0.98,0.12,1.22,-0.31
1860747,-0.01,0.03,0.99,0.12,1.53,-0.12
1860756,-0.01,0.03,0.99,0.24,1.40,-0.12
1860765,-0.01,0.03,0.99,0.31,1.22,-0.24
1860773,-0.00,0.03,0.99,0.49,1.22,-0.37
1860782,-0.00,0.03,0.99,0.49,1.04,-0.37
1860791,-0.00,0.03,0.99,0.43,0.98,-0.37
1860799,-0.01,0.03,0.99,0.73,0.92,-0.24
1860808,-0.01,0.03,0.98,0.67,0.67,-0.31
1860817,-0.01,0.02,0.98,0.85,0.43,-0.18
1860825,-0.01,0.02,0.99,0.73,0.37,0.12
1860833,-0.02,0.02,0.99,0.49,0.37,-0.06
1860842,-0.02,0.02,0.98,0.55,0.31,-0.12
1860851,-0.02,0.02,0.98,0.61,0.24,-0.31
1860860,-0.02,0.02,0.98,0.55,0.49,-0.18
1860868,-0.02,0.02,0.98,0.49,0.55,-0.24
1860877,-0.02,0.02,0.98,0.55,0.49,-0.12
1860886,-0.02,0.02,0.98,0.37,0.43,-0.06
1860894,-0.03,0.02,0.98,0.43,0.49,-0.12
1860903,-0.03,0.02,0.98,0.37,0.67,-0.12
1860911,-0.03,0.02,0.98,0.24,0.67,-0.24
1860920,-0.03,0.02,0.98,0.24,0.92,-0.31
1860929,-0.03,0.02,0.98,0.37,1.04,-0.12
1860938,-0.03,0.02,0.98,0.31,1.10,-0.43
1860945,-0.02,0.02,0.98,0.31,1.28,-0.37
1860954,-0.02,0.03,0.98,0.31,1.53,-0.18
1860963,-0.01,0.03,0.99,0.24,1.53,-0.12
1860971,-0.01,0.03,0.99,0.37,1.53,-0.24
1860980,-0.00,0.03,0.99,0.55,1.34,-0.37
1860989,-0.00,0.03,0.99,0.61,1.28,-0.31
1860998,0.00,0.02,0.99,0.43,1.04,-0.31
1861006,0.00,0.02,0.99,0.55,0.73,-0.24
1861015,-0.00,0.02,0.99,0.61,0.79,-0.24
1861023,-0.00,0.02,0.99,0.67,0.61,-0.31
1861032,-0.01,0.02,0.99,0.85,0.37,-0.24
1861041,-0.01,0.02,0.99,0.61,0.31,-0.24
1861049,-0.02,0.02,0.98,0.55,-0.12,-0.24
1861058,-0.02,0.03,0.98,0.73,-0.06,-0.12
1861067,-0.03,0.02,0.98,0.67,0.12,-0.06
1861075,-0.03,0.02,0.98,0.55,0.24,-0.06
1861084,-0.04,0.02,0.98,0.49,0.31,0.06
1861093,-0.04,0.02,0.98,0.43,0.67,0.06
1861101,-0.03,0.02,0.98,0.37,0.73,0.06
1861110,-0.03,0.02,0.98,0.31,0.98,0.12
1861118,-0.02,0.01,0.98,0.31,1.28,-0.06
1861127,-0.02,0.02,0.98,0.31,1.46,-0.12
1861135,-0.01,0.02,0.98,0.31,1.59,-0.24
1861144,-0.01,0.02,0.99,0.24,1.53,-0.24
1861153,-0.01,0.02,0.99,0.06,1.28,-0.37
1861161,-0.01,0.03,0.99,0.31,1.10,-0.55
1861170,-0.01,0.03,0.99,0.18,1.16,-0.43
1861179,-0.01,0.03,0.99,0.24,0.98,-0.37
1861188,-0.01,0.03,0.99,0.43,0.85,-0.37
1861195,-0.01,0.03,0.99,0.55,0.85,-0.24
1861204,-0.01,0.03,0.99,0.49,0.79,-0.43
1861213,-0.01,0.03,0.99,0.24,0.67,-0.31
1861222,-0.02,0.03,0.99,0.55,0.49,-0.43
1861230,-0.01,0.02,0.99,0.49,0.43,-0.24
1861239,-0.02,0.02,0.99,0.43,0.61,-0.18
1861247,-0.01,0.02,0.98,0.49,0.43,-0.12
1861256,-0.02,0.02,0.98,0.37,0.37,-0.06
1861265,-0.02,0.02,0.98,0.37,0.37,-0.12
1861274,-0.02,0.02,0.98,0.49,0.24,-0.12
1861282,-0.02,0.02,0.98,0.37,0.24,-0.18
1861291,-0.03,0.02,0.98,0.31,0.37,-0.18
1861300,-0.03,0.02,0.98,0.18,0.61,0.00
1861308,-0.03,0.02,0.97,0.31,0.49,0.06
1861317,-0.03,0.02,0.97,0.18,0.85,0.00
1861325,-0.02,0.02,0.98,0.06,1.16,0.00
1861334,-0.02,0.02,0.98,0.18,1.28,-0.18
1861343,-0.02,0.03,0.99,0.43,1.16,-0.55
1861351,-0.01,0.03,0.99,0.24,1.46,-0.73
1861360,-0.01,0.04,0.99,0.37,1.40,-0.49
1861368,-0.01,0.04,0.99,0.55,1.22,-0.31
1861377,-0.00,0.03,0.99,0.67,1.16,-0.12
1861386,-0.00,0.03,0.99,0.79,0.92,-0.24
1861394,-0.00,0.03,0.99,0.85,0.73,-0.24
1861402,-0.00,0.02,0.99,0.79,0.67,-0.24
1861411,-0.01,0.02,0.99,0.73,0.49,-0.18
1861420,-0.01,0.02,0.98,0.67,0.43,-0.24
1861429,-0.01,0.02,0.98,0.61,0.37,-0.24
1861437,-0.02,0.01,0.98,0.67,0.31,-0.06
1861446,-0.02,0.01,0.98,0.61,0.18,-0.18
1861454,-0.02,0.01,0.98,0.49,0.24,-0.12
1861463,-0.02,0.01,0.98,0.43,0.18,-0.06
1861472,-0.02,0.01,0.98,0.24,0.31,-0.12
1861480,-0.03,0.02,0.98,0.12,0.55,-0.12
1861489,-0.03,0.02,0.98,0.18,0.43,-0.18
1861498,-0.03,0.02,0.98,0.18,0.43,-0.12
1861506,-0.03,0.02,0.98,0.00,0.67,0.12
1861515,-0.03,0.03,0.98,0.00,0.92,0.06
1861524,-0.03,0.02,0.98,-0.06,1.10,0.24
1861532,-0.02,0.02,0.98,-0.12,1.34,0.06
1861541,-0.02,0.03,0.98,-0.12,1.28,-0.12
1861550,-0.01,0.03,0.98,0.12,1.28,-0.31
1861558,-0.01,0.04,0.99,0.24,1.40,-0.43
1861567,-0.01,0.04,0.99,0.37,1.40,-0.43
1861575,-0.00,0.04,0.99,0.61,1.46,-0.31
1861584,-0.00,0.03,0.99,0.79,1.22,-0.31
1861592,0.00,0.03,0.99,0.85,0.98,-0.31
1861601,0.00,0.02,0.99,0.85,0.92,-0.55
1861610,0.00,0.02,0.99,0.92,0.79,-0.49
1861618,0.00,0.02,0.99,0.79,0.55,-0.43
1861627,-0.00,0.02,0.99,0.92,0.43,-0.49
1861635,-0.00,0.02,0.99,0.92,0.12,-0.61
1861644,-0.01,0.02,0.98,0.73,-0.06,-0.61
1861653,-0.01,0.01,0.98,0.61,-0.12,-0.37
1861661,-0.02,0.01,0.98,0.61,-0.18,-0.24
1861670,-0.02,0.01,0.98,0.49,-0.43,-0.06
1861679,-0.03,0.01,0.97,0.43,-0.43,0.00
1861687,-0.04,0.01,0.97,0.24,-0.37,0.06
1861696,-0.05,0.02,0.97,0.00,0.06,0.00
1861705,-0.05,0.02,0.97,0.00,0.31,-0.12
1861713,-0.05,0.02,0.97,-0.06,0.79,-0.12
1861722,-0.04,0.02,0.97,-0.12,1.10,-0.12
1861731,-0.04,0.02,0.97,-0.12,1.53,-0.12
1861739,-0.03,0.02,0.98,-0.06,1.71,-0.06
1861747,-0.02,0.03,0.98,0.06,1.89,-0.24
1861756,-0.01,0.03,0.99,-0.06,1.83,-0.37
1861764,0.00,0.04,0.99,0.00,1.83,-0.43
1861773,0.00,0.04,1.00,0.24,1.77,-0.37
1861783,0.01,0.04,1.00,0.49,1.46,-0.31
1861791,0.01,0.04,1.00,0.73,0.98,-0.43
1861800,0.01,0.04,1.00,0.85,0.73,-0.31
1861808,0.00,0.03,1.00,0.85,0.61,-0.24
1861817,0.00,0.03,0.99,0.98,0.31,-0.18
1861825,-0.00,0.02,0.99,0.98,0.18,-0.12
1861834,-0.01,0.02,0.99,1.16,-0.06,-0.24
1861843,-0.02,0.02,0.98,0.85,-0.12,-0.06
1861852,-0.02,0.01,0.98,0.92,-0.12,-0.18
1861860,-0.03,0.01,0.98,0.85,-0.24,-0.18
1861868,-0.03,0.01,0.97,0.85,-0.06,-0.18
1861877,-0.03,0.01,0.97,0.67,0.37,-0.18
1861885,-0.03,0.01,0.97,0.49,0.43,-0.24
1861894,-0.04,0.01,0.97,0.49,0.43,-0.24
1861903,-0.04,0.02,0.97,0.24,0.61,-0.31
1861911,-0.04,0.02,0.97,0.12,0.79,-0.06
1861920,-0.04,0.02,0.97,-0.06,1.10,0.00
1861929,-0.03,0.02,0.98,-0.24,1.34,0.18
1861937,-0.02,0.02,0.98,-0.37,1.65,0.12
1861946,-0.02,0.02,0.98,-0.18,1.71,0.18
1861954,-0.01,0.02,0.99,-0.06,1.59,-0.06
1861963,-0.00,0.03,0.99,0.06,1.59,-0.31
1861972,-0.00,0.03,0.99,0.12,1.46,-0.31
1861980,0.01,0.04,1.00,0.06,1.40,-0.18
1861989,0.01,0.04,1.00,0.37,1.22,-0.24
1861997,0.01,0.03,1.00,0.43,0.98,-0.24
1862006,0.00,0.03,0.99,0.73,0.67,-0.31
1862015,-0.00,0.03,0.99,0.85,0.43,-0.49
1862024,-0.01,0.03,0.99,0.85,0.24,-0.55
1862032,-0.02,0.03,0.99,0.79,0.12,-0.43
1862041,-0.02,0.02,0.98,1.10,0.18,-0.24
1862050,-0.02,0.02,0.98,1.10,0.31,-0.06
1862058,-0.02,0.01,0.98,0.92,0.18,-0.06
1862067,-0.02,0.01,0.98,0.79,0.49,-0.06
1862075,-0.03,0.01,0.98,0.61,0.49,-0.18
1862084,-0.03,0.01,0.97,0.49,0.43,-0.24
1862093,-0.03,0.01,0.98,0.49,0.49,-0.06
1862101,-0.03,0.02,0.98,0.43,0.67,-0.12
1862110,-0.03,0.02,0.98,0.12,0.79,0.00
1862118,-0.03,0.02,0.98,0.24,0.85,0.00
1862127,-0.02,0.02,0.98,0.24,0.98,0.00
1862136,-0.02,0.02,0.98,-0.06,1.10,0.12
1862144,-0.02,0.02,0.99,0.00,1.22,-0.06
1862153,-0.01,0.03,0.99,-0.06,1.46,-0.12
1862162,-0.01,0.03,0.99,0.06,1.46,-0.24
1862170,-0.01,0.03,0.99,0.18,1.40,-0.31
1862179,-0.01,0.04,1.00,0.18,1.28,-0.24
1862188,-0.00,0.03,0.99,0.18,1.16,-0.24
1862196,0.00,0.03,0.99,0.55,1.16,-0.37
1862205,0.00,0.03,0.99,0.73,0.98,-0.31
1862213,0.00,0.03,0.99,0.85,0.55,-0.31
1862221,-0.00,0.03,0.99,1.04,0.31,-0.31
1862231,-0.00,0.03,0.99,0.98,0.24,-0.55
1862239,-0.01,0.02,0.99,0.92,0.12,-0.43
1862248,-0.02,0.02,0.98,1.04,0.12,-0.31
1862256,-0.02,0.01,0.98,0.98,0.18,-0.31
1862264,-0.03,0.01,0.98,0.92,0.43,-0.31
1862274,-0.03,0.00,0.97,0.73,0.37,0.00
1862283,-0.03,0.00,0.97,0.79,0.43,-0.12
1862291,-0.03,-0.00,0.97,0.61,0.55,-0.18
1862299,-0.03,-0.00,0.98,0.24,0.73,-0.18
1862308,-0.03,0.00,0.97,0.06,0.79,-0.31
1862317,-0.03,0.02,0.97,0.00,0.67,-0.31
1862326,-0.03,0.02,0.99,-0.12,1.04,-0.06
1862334,-0.02,0.04,0.98,-0.24,1.16,-0.24
1862343,-0.02,0.03,0.98,-0.06,1.16,-0.06
1862351,-0.02,0.03,0.99,0.06,1.28,0.06
1862359,-0.01,0.03,0.98,0.00,1.28,-0.06
1862368,-0.01,0.02,0.99,0.24,1.16,-0.06
1862377,-0.00,0.02,0.99,0.12,1.10,-0.12
1862388,0.00,0.02,0.99,-0.06,1.10,-0.18
1862397,-0.00,0.03,0.99,0.12,0.85,-0.31
1862406,-0.00,0.03,0.99,0.37,0.61,-0.55
1862414,-0.01,0.04,0.99,0.43,0.61,-0.43
1862422,-0.01,0.04,0.99,0.55,0.67,-0.31
1862431,-0.01,0.03,0.99,0.73,0.43,-0.06
1862438,-0.02,0.02,0.98,0.61,0.31,0.00
1862446,-0.02,0.02,0.98,0.73,0.49,-0.12
1862455,-0.02,0.01,0.98,0.67,0.49,-0.18
1862463,-0.03,0.01,0.98,0.49,0.55,-0.12
1862472,-0.03,0.02,0.98,0.61,0.55,-0.18
1862481,-0.03,0.02,0.98,0.43,0.61,-0.24
1862490,-0.03,0.02,0.98,0.37,0.73,-0.06
1862497,-0.02,0.02,0.98,0.31,0.79,0.06
1862506,-0.02,0.02,0.98,0.31,0.92,-0.06
1862515,-0.02,0.02,0.98,0.18,1.04,-0.06
1862524,-0.01,0.02,0.98,0.12,1.04,0.00
1862532,-0.01,0.02,0.98,0.12,1.04,-0.18
1862541,-0.01,0.02,0.99,0.00,1.10,-0.37
1862550,-0.01,0.02,0.99,0.18,0.85,-0.24
1862559,-0.00,0.02,0.99,0.43,0.79,-0.24
1862567,-0.00,0.03,0.99,0.12,0.85,-0.31
1862576,-0.00,0.03,0.99,0.06,0.55,-0.18
1862583,-0.01,0.03,0.99,0.31,0.37,-0.24
1862592,-0.01,0.03,0.99,0.31,0.37,-0.31
1862602,-0.01,0.03,0.99,0.49,0.37,-0.43
1862610,-0.02,0.03,0.98,0.61,0.18,-0.43
1862619,-0.02,0.03,0.98,0.55,0.12,-0.43
1862627,-0.02,0.03,0.98,0.61,0.18,-0.43
1862635,-0.02,0.03,0.98,0.49,0.43,-0.12
1862644,-0.03,0.03,0.98,0.55,0.37,-0.18
1862653,-0.03,0.03,0.98,0.67,0.31,-0.43
1862661,-0.03,0.02,0.98,0.67,0.61,-0.24
1862670,-0.03,0.02,0.98,0.79,0.55,-0.18
1862678,-0.03,0.02,0.98,0.73,0.55,-0.12
1862687,-0.03,0.02,0.98,0.67,0.85,-0.24
1862696,-0.03,0.02,0.98,0.55,1.10,-0.06
1862705,-0.03,0.01,0.98,0.49,1.28,0.00
1862713,-0.02,0.01,0.98,0.49,1.28,0.06
1862722,-0.02,0.01,0.98,0.31,1.40,-0.18
1862730,-0.02,0.02,0.98,0.00,1.34,-0.24
1862739,-0.01,0.02,0.98,0.12,1.28,-0.18
1862748,-0.01,0.02,0.99,0.18,1.34,-0.12
1862757,-0.00,0.02,0.99,0.18,1.28,-0.18
1862765,-0.00,0.02,0.99,0.00,1.22,-0.24
1862774,-0.00,0.02,0.99,0.12,1.04,-0.18
1862782,-0.00,0.03,0.99,0.06,0.98,-0.18
1862791,-0.00,0.03,0.99,0.06,0.73,-0.12
1862799,-0.01,0.03,0.99,0.12,0.49,-0.18
1862808,-0.01,0.03,0.99,0.00,0.43,-0.18
1862817,-0.01,0.03,0.98,0.18,0.12,-0.18
1862825,-0.02,0.03,0.98,0.24,0.06,-0.37
1862834,-0.02,0.02,0.99,0.24,0.37,-0.12
1862842,-0.02,0.02,0.99,0.18,0.37,-0.24
1862851,-0.03,0.03,0.98,0.37,0.49,-0.18
1862860,-0.03,0.03,0.98,0.31,0.43,-0.12
1862869,-0.03,0.03,0.98,0.31,0.73,-0.12
1862877,-0.03,0.02,0.99,0.31,0.92,-0.12
1862886,-0.02,0.03,0.98,0.49,0.92,-0.12
1862894,-0.02,0.02,0.98,0.37,0.49,-0.06
1862903,-0.02,0.02,0.98,0.31,0.73,-0.06
1862912,-0.02,0.02,0.97,0.43,0.79,0.00
1862920,-0.02,0.02,0.99,0.49,0.92,0.00
1862929,-0.02,0.01,0.97,0.49,0.85,0.06
1862937,-0.01,0.02,0.98,0.24,1.22,-0.12
1862946,-0.01,0.02,0.98,0.31,1.10,-0.31
1862954,-0.01,0.02,0.99,0.37,1.40,-0.55
1862963,-0.01,0.03,0.99,0.37,1.28,-0.55
1862972,-0.00,0.04,0.99,0.24,1.28,-0.49
1862980,-0.00,0.04,0.99,0.31,1.10,-0.24
1862989,-0.00,0.03,0.99,0.43,0.73,-0.37
1862997,-0.00,0.03,0.99,0.67,0.61,-0.24
1863006,-0.01,0.03,0.99,0.61,0.43,-0.18
1863015,-0.01,0.03,0.99,0.79,0.31,-0.12
1863023,-0.01,0.03,0.98,0.92,0.31,-0.24
1863032,-0.02,0.03,0.98,0.79,0.49,-0.24
1863041,-0.02,0.02,0.98,0.73,0.31,-0.37
1863049,-0.02,0.02,0.98,0.67,0.24,-0.24
1863058,-0.02,0.02,0.98,0.73,0.37,-0.12
1863067,-0.02,0.02,0.98,0.67,0.55,-0.12
1863075,-0.02,0.01,0.98,0.55,0.49,-0.18
1863084,-0.03,0.01,0.98,0.61,0.49,-0.24
1863093,-0.03,0.02,0.98,0.43,0.61,-0.24
1863101,-0.03,0.02,0.98,0.18,0.67,-0.18
1863110,-0.03,0.02,0.98,0.24,0.85,-0.12
1863119,-0.03,0.02,0.98,0.18,0.79,0.00
1863127,-0.02,0.02,0.98,0.06,1.04,0.00
1863136,-0.02,0.02,0.98,-0.06,1.22,0.00
1863145,-0.02,0.02,0.98,0.00,1.28,-0.18
1863153,-0.02,0.03,0.99,0.06,1.40,-0.24
1863161,-0.01,0.03,0.99,0.12,1.34,-0.24
1863170,-0.01,0.03,0.99,0.18,1.46,-0.24
1863179,-0.00,0.03,0.99,0.31,1.16,-0.12
1863187,0.00,0.03,0.99,0.24,1.22,-0.12
1863196,0.00,0.03,0.99,0.37,1.04,-0.31
1863205,-0.00,0.03,0.99,0.55,1.04,-0.43
1863214,-0.00,0.03,0.99,0.67,0.67,-0.43
1863222,-0.00,0.03,0.99,0.43,0.49,-0.31
1863230,-0.01,0.03,0.99,0.55,0.37,-0.31
1863239,-0.01,0.03,0.99,0.73,0.24,-0.37
1863247,-0.02,0.03,0.97,0.92,-0.12,-0.37
1863256,-0.02,0.02,0.98,0.79,0.12,-0.12
1863265,-0.03,0.02,0.99,0.61,0.43,-0.06
1863274,-0.03,0.02,0.98,0.73,0.24,-0.24
1863282,-0.04,0.02,0.97,0.73,0.43,-0.43
1863291,-0.04,0.02,0.98,0.73,0.73,-0.37
1863300,-0.04,0.02,0.98,0.55,0.85,0.00
1863308,-0.04,0.02,0.98,0.61,1.04,0.12
1863317,-0.03,0.01,0.98,0.55,1.04,0.18
1863326,-0.02,0.01,0.98,0.43,1.28,0.24
1863333,-0.01,0.01,0.98,0.18,1.40,0.06
1863342,-0.00,0.01,0.98,0.31,1.34,0.12
1863351,-0.00,0.02,0.99,0.31,1.22,-0.24
1863360,-0.00,0.03,0.99,0.06,1.16,-0.55
1863368,-0.00,0.03,0.99,0.00,1.04,-0.61
1863377,-0.00,0.03,0.99,0.24,1.04,-0.49
1863386,-0.01,0.03,0.99,0.31,0.98,-0.43
1863394,-0.01,0.02,0.99,0.31,0.79,-0.43
1863403,-0.01,0.02,0.99,0.37,0.61,-0.43
1863411,-0.01,0.03,0.99,0.43,0.61,-0.43
1863420,-0.01,0.03,0.99,0.43,0.37,-0.24
1863429,-0.01,0.03,0.99,0.43,0.43,-0.43
1863438,-0.01,0.03,0.99,0.67,0.43,-0.49
1863446,-0.01,0.03,0.99,0.79,0.24,-0.37
1863454,-0.02,0.02,0.98,0.85,0.00,-0.31
1863464,-0.02,0.02,0.98,0.67,0.12,-0.24
1863472,-0.02,0.01,0.98,0.67,0.24,-0.18
1863481,-0.02,0.01,0.98,0.55,0.18,-0.06
1863490,-0.03,0.01,0.98,0.55,0.31,0.00
1863498,-0.03,0.01,0.97,0.43,0.31,-0.06
1863507,-0.03,0.01,0.98,0.31,0.49,0.06
1863515,-0.04,0.02,0.97,0.18,0.67,-0.06
1863524,-0.04,0.02,0.98,0.18,0.73,-0.12
1863532,-0.03,0.02,0.98,0.18,0.92,-0.18
1863541,-0.03,0.02,0.98,0.06,1.22,-0.18
1863549,-0.02,0.02,0.98,0.06,1.34,-0.12
1863558,-0.02,0.03,0.98,-0.06,1.40,-0.12
1863566,-0.01,0.03,0.99,0.00,1.40,-0.31
1863575,-0.01,0.03,0.99,-0.06,1.53,-0.43
1863584,-0.01,0.03,0.99,-0.06,1.46,-0.49
1863593,-0.01,0.03,0.99,0.12,1.28,-0.43
1863601,-0.00,0.03,0.99,0.31,1.04,-0.18
1863610,-0.00,0.04,0.99,0.24,0.85,-0.12
1863619,-0.00,0.03,0.99,0.49,1.10,-0.06
1863628,-0.00,0.03,0.99,0.73,1.04,-0.06
1863636,-0.00,0.02,0.99,0.55,0.85,-0.31
1863644,-0.00,0.02,0.99,0.73,0.67,-0.31
1863653,-0.01,0.02,0.99,0.92,0.49,-0.43
1863661,-0.01,0.02,0.98,0.73,0.00,-0.43
1863670,-0.02,0.02,0.98,0.79,0.31,-0.31
1863679,-0.03,0.02,0.98,0.79,0.24,-0.31
1863687,-0.03,0.02,0.98,0.85,0.06,-0.18
1863696,-0.03,0.02,0.97,0.49,0.31,0.00
1863705,-0.03,0.01,0.98,0.61,0.37,0.00
1863714,-0.03,0.01,0.98,0.55,0.61,0.12
1863722,-0.03,0.01,0.97,0.37,0.85,0.18
1863730,-0.02,0.01,0.98,0.37,1.28,0.00
1863739,-0.02,0.02,0.99,0.18,1.28,-0.24
1863747,-0.02,0.02,0.98,0.18,1.22,-0.24
1863757,-0.01,0.03,0.99,0.18,1.16,-0.24
1863766,-0.01,0.03,0.99,0.00,1.34,-0.24
1863773,-0.01,0.03,0.99,0.18,1.28,-0.12
1863782,-0.01,0.03,0.99,0.18,1.16,0.06
1863791,-0.01,0.03,0.99,0.49,0.98,0.06
1863799,-0.01,0.02,0.99,0.49,0.85,-0.06
1863808,-0.01,0.02,0.99,0.61,0.92,-0.37
1863817,-0.01,0.02,0.99,0.67,0.79,-0.49
1863826,-0.01,0.03,0.99,0.67,0.67,-0.55
1863834,-0.01,0.03,0.99,0.55,0.49,-0.24
1863843,-0.00,0.02,0.99,0.61,0.61,-0.37
1863851,-0.00,0.02,0.99,0.55,0.43,-0.24
1863860,-0.01,0.02,0.99,0.55,0.18,-0.31
1863869,-0.01,0.02,0.99,0.67,0.24,-0.55
1863877,-0.02,0.03,0.98,0.79,0.12,-0.55
1863886,-0.03,0.03,0.98,0.67,0.06,-0.24
1863894,-0.04,0.03,0.98,0.55,0.06,0.00
1863903,-0.04,0.02,0.97,0.61,0.61,0.31
1863912,-0.04,0.01,0.97,0.31,0.67,0.61
1863920,-0.04,0.00,0.97,0.18,0.85,0.37
1863929,-0.03,0.00,0.97,0.12,1.22,0.37
1863937,-0.02,0.00,0.98,-0.06,1.53,0.24
1863946,-0.02,0.01,0.98,-0.06,1.59,-0.06
1863955,-0.02,0.02,0.98,-0.12,1.16,0.00
1863963,-0.01,0.03,0.98,-0.31,1.34,-0.06
1863972,-0.01,0.03,0.99,-0.31,1.59,0.12
1863981,-0.01,0.03,0.99,-0.31,1.46,0.18
1863990,-0.01,0.03,0.99,-0.24,1.46,0.00
1863998,-0.00,0.03,0.99,-0.06,1.34,-0.31
1864007,-0.00,0.03,0.99,0.06,1.34,-0.49
1864015,-0.00,0.04,0.99,0.12,1.22,-0.55
1864024,-0.00,0.04,1.00,0.49,1.16,-0.55
1864032,0.00,0.04,0.99,0.67,0.73,-0.49
1864041,0.00,0.04,1.00,0.61,0.61,-0.49
1864049,0.00,0.03,0.99,0.85,0.43,-0.49
1864058,-0.00,0.03,0.99,1.10,0.18,-0.43
1864066,-0.01,0.03,0.99,1.16,0.12,-0.55
1864075,-0.02,0.03,0.98,1.28,0.00,-0.79
1864084,-0.03,0.03,0.98,1.16,-0.06,-0.67
1864093,-0.04,0.03,0.98,1.22,0.18,-0.55
1864101,-0.04,0.03,0.98,1.28,0.31,-0.43
1864110,-0.04,0.02,0.97,1.34,0.61,-0.06
1864118,-0.04,0.01,0.97,1.28,0.73,0.18
1864128,-0.03,-0.00,0.97,1.10,0.98,0.24
1864136,-0.02,-0.01,0.97,0.79,1.22,0.24
1864145,-0.01,-0.01,0.98,0.55,1.22,0.18
1864153,0.00,-0.01,0.98,0.24,1.04,0.00
1864162,0.01,-0.01,0.98,-0.18,0.85,-0.37
1864170,0.01,-0.00,0.98,-0.31,0.92,-0.31
1864179,0.01,0.01,0.99,-0.55,0.61,-0.37
1864187,0.00,0.02,0.99,-0.79,0.31,-0.55
1864196,-0.01,0.04,0.99,-0.61,0.00,-0.55
1864205,-0.02,0.04,0.99,-0.79,-0.24,-0.55
1864214,-0.03,0.05,1.00,-0.55,-0.31,-0.49
1864223,-0.04,0.06,0.96,-0.18,-0.61,-0.24
1864231,-0.04,0.05,0.99,0.06,0.12,0.12
1864239,-0.04,0.05,0.99,0.24,0.55,0.31
1864248,-0.05,0.04,0.98,0.55,0.73,0.12
1864257,-0.04,0.04,0.98,1.10,1.04,-0.12
1864268,-0.04,0.03,0.98,1.22,1.22,0.06
1864275,-0.03,0.03,0.99,1.22,1.71,-0.06
1864283,-0.03,0.03,0.98,1.22,1.71,-0.12
1864292,-0.02,0.02,0.98,1.34,1.71,-0.18
1864300,-0.01,0.02,0.98,1.28,1.53,-0.18
1864308,-0.01,0.01,0.99,1.10,1.83,-0.06
1864317,-0.00,0.01,0.98,1.16,1.77,-0.06
1864326,-0.00,0.00,0.98,1.22,1.53,-0.18
1864334,-0.00,0.01,0.99,1.04,1.34,-0.37
1864343,-0.01,0.01,0.98,0.73,1.10,-0.31
1864351,-0.01,0.02,0.97,0.61,1.04,-0.31
1864360,-0.01,0.01,0.98,0.61,1.22,-0.43
1864369,0.00,0.01,0.98,0.31,1.28,-0.24
1864377,0.00,0.01,0.99,0.06,1.22,-0.18
1864386,0.01,0.01,0.99,0.06,0.98,-0.18
1864395,0.01,0.01,0.99,0.00,0.67,-0.24
1864403,0.01,0.02,0.99,-0.06,0.37,-0.24
1864411,0.00,0.02,0.99,-0.12,0.18,-0.37
1864420,-0.00,0.03,0.99,-0.06,0.00,-0.31
1864429,-0.01,0.03,0.99,-0.06,-0.12,-0.12
1864438,-0.02,0.04,0.99,0.12,-0.37,-0.18
1864447,-0.03,0.04,0.98,0.06,-0.18,-0.12
1864455,-0.03,0.03,0.98,0.18,-0.12,-0.12
1864464,-0.03,0.03,0.98,0.18,-0.06,0.00
1864472,-0.04,0.03,0.98,0.37,0.00,-0.18
1864481,-0.04,0.03,0.98,0.55,0.31,-0.24
1864489,-0.03,0.02,0.98,0.55,0.49,-0.24
1864497,-0.03,0.02,0.98,0.49,0.73,-0.43
1864507,-0.03,0.02,0.98,0.73,0.73,-0.55
1864515,-0.03,0.03,0.98,0.79,0.98,-0.37
1864524,-0.03,0.02,0.97,0.55,1.34,-0.12
1864532,-0.02,0.02,0.98,0.55,1.53,0.18
1864541,-0.02,0.01,0.98,0.55,1.53,0.18
1864550,-0.01,0.01,0.98,0.49,1.46,0.37
1864558,-0.00,0.01,0.98,0.49,1.34,0.12
1864567,-0.01,0.02,0.99,0.18,1.46,-0.18
1864575,-0.01,0.03,0.99,0.06,1.46,-0.49
1864584,-0.02,0.04,0.99,0.12,1.22,-0.61
1864593,-0.03,0.04,0.99,0.43,0.85,-0.43
1864602,-0.03,0.05,0.97,0.55,0.92,-0.06
1864610,-0.01,0.02,0.99,0.61,1.53,0.37
1864618,-0.00,0.01,1.00,0.49,1.53,0.43
1864627,0.01,0.01,0.99,0.55,1.04,0.00
1864636,0.01,0.01,0.98,0.67,0.92,-0.49
1864644,0.01,0.02,0.99,0.43,0.61,-0.85
1864653,-0.00,0.03,0.99,0.49,0.67,-0.55
1864661,-0.01,0.04,0.99,0.61,0.37,-0.12
1864670,-0.02,0.03,0.98,0.67,0.06,0.12
1864679,-0.02,0.02,0.98,0.67,0.24,0.18
1864687,-0.01,0.01,0.98,0.55,0.49,-0.06
1864697,-0.02,0.01,0.98,0.61,0.49,-0.43
1864705,-0.02,0.02,0.98,0.67,0.18,-0.67
1864713,-0.02,0.02,0.98,0.24,0.37,-0.79
1864722,-0.02,0.03,0.98,0.37,0.24,-0.31
1864730,-0.02,0.02,0.98,0.31,0.24,0.24
1864739,-0.02,0.02,0.98,0.06,0.31,0.49
1864748,-0.02,0.01,0.97,0.06,0.31,0.55
1864757,-0.02,0.01,0.98,0.00,0.49,0.18
1864765,-0.03,0.02,0.98,0.00,0.85,-0.12
1864774,-0.03,0.02,0.98,0.18,1.16,-0.49
1864783,-0.03,0.03,0.99,0.18,1.28,-0.73
1864791,-0.03,0.04,0.99,0.24,1.16,-0.79
1864799,-0.02,0.04,0.99,0.24,1.22,-0.49
1864808,-0.02,0.04,0.99,0.49,1.22,-0.37
1864817,-0.02,0.04,0.99,0.67,1.04,-0.24
1864825,-0.01,0.04,0.99,0.85,1.04,-0.24
1864834,-0.01,0.03,0.99,0.98,1.28,-0.24
1864843,-0.01,0.03,0.99,1.22,1.28,-0.43
1864851,-0.01,0.03,0.99,1.34,1.22,-0.24
1864860,-0.01,0.02,0.98,1.28,1.16,-0.18
1864869,-0.01,0.02,0.98,1.16,1.22,-0.12
1864877,-0.01,0.01,0.99,1.04,1.22,-0.18
1864886,-0.01,0.01,0.98,0.85,0.92,-0.06
1864894,-0.01,0.00,0.98,0.67,0.73,-0.18
1864903,-0.01,0.00,0.98,0.67,0.67,-0.18
1864912,-0.01,0.00,0.98,0.31,0.61,-0.06
1864920,-0.02,0.01,0.98,0.12,0.31,-0.18
1864929,-0.03,0.01,0.98,0.00,0.43,0.06
1864937,-0.03,0.01,0.97,-0.12,0.55,0.06
1864946,-0.03,0.01,0.98,-0.24,0.61,0.06
1864955,-0.03,0.02,0.98,-0.24,0.92,0.18
1864963,-0.02,0.02,0.98,-0.43,1.22,0.00
1864972,-0.02,0.02,0.98,-0.24,1.28,-0.12
1864980,-0.01,0.03,0.99,-0.18,1.16,-0.43
1864989,-0.00,0.03,0.99,-0.43,1.22,-0.61
1864998,-0.00,0.04,1.00,-0.12,1.22,-0.55
1865006,0.00,0.04,1.00,0.06,0.79,-0.49
1865015,0.00,0.04,0.99,0.18,0.73,-0.37
1865023,0.00,0.04,1.00,0.43,0.61,-0.37
1865032,-0.00,0.04,0.99,0.55,0.31,-0.24
1865041,-0.01,0.04,0.99,0.79,0.00,-0.31
1865049,-0.02,0.03,0.99,0.92,0.18,-0.31
1865058,-0.03,0.03,0.98,0.92,0.18,-0.37
1865067,-0.03,0.03,0.98,0.92,0.24,-0.49
1865075,-0.03,0.03,0.98,1.04,0.49,-0.55
1865084,-0.03,0.03,0.98,1.10,0.61,-0.31
1865093,-0.03,0.02,0.98,1.04,0.79,-0.12
1865101,-0.02,0.01,0.98,1.16,0.92,-0.12
1865110,-0.02,0.01,0.98,1.16,0.92,-0.12
1865118,-0.02,0.00,0.98,0.85,0.79,-0.12
1865127,-0.01,0.00,0.98,0.85,0.85,-0.12
1865136,-0.02,0.01,0.98,0.49,0.73,-0.24
1865145,-0.02,0.01,0.98,0.31,0.98,-0.31
1865153,-0.02,0.02,0.98,0.24,1.04,-0.37
1865162,-0.02,0.02,0.98,0.06,1.04,-0.31
1865170,-0.02,0.02,0.98,0.00,1.04,-0.31
1865179,-0.02,0.03,0.98,0.12,1.28,-0.31
1865188,-0.02,0.03,0.99,0.06,1.16,-0.31
1865196,-0.02,0.03,0.99,0.06,0.98,-0.12
1865205,-0.01,0.03,0.99,0.24,0.98,-0.12
1865214,-0.01,0.02,0.99,0.18,1.22,-0.12
1865222,-0.01,0.02,0.98,0.24,1.40,0.00
1865231,-0.01,0.02,0.98,0.31,1.04,-0.18
1865239,-0.01,0.02,0.98,0.49,1.16,0.00
1865248,-0.01,0.03,0.99,0.49,1.46,-0.37
1865256,-0.02,0.05,0.99,0.67,1.46,-0.55
1865265,-0.02,0.06,0.99,1.10,1.53,-1.10
1865273,-0.03,0.07,1.00,1.28,1.65,-1.40
1865282,-0.03,0.06,1.00,1.71,1.53,-0.98
1865291,-0.03,0.05,0.99,1.89,1.46,-0.55
1865299,-0.02,0.03,0.98,1.83,1.46,-0.24
1865308,-0.01,0.00,0.99,1.89,1.46,0.31
1865317,-0.01,-0.01,0.98,1.89,1.22,0.24
1865326,-0.02,-0.01,0.97,1.59,1.04,-0.12
1865334,-0.03,-0.00,0.97,1.65,1.28,-0.31
1865343,-0.03,-0.00,0.97,1.40,1.95,-0.79
1865352,-0.02,-0.00,0.98,0.92,2.14,-1.10
1865360,-0.03,0.01,0.96,0.98,1.95,-1.34
1865369,-0.02,0.02,0.98,0.92,2.08,-1.16
1865378,-0.02,0.02,0.99,0.85,2.44,-0.67
1865386,-0.01,0.01,0.98,0.49,2.26,-0.18
1865395,0.00,0.00,0.98,0.31,2.20,0.18
1865403,0.01,0.01,0.99,0.31,2.14,0.12
1865412,0.02,0.02,1.00,0.18,2.01,-0.31
1865420,0.02,0.03,1.00,0.24,1.71,-0.55
1865429,0.01,0.05,1.00,0.37,1.28,-0.73
1865437,0.01,0.05,1.00,0.37,0.79,0.18
1865446,0.02,0.01,0.99,0.12,0.37,1.34
1865455,0.03,-0.02,0.99,0.18,-0.06,2.08
1865463,0.03,-0.04,0.98,0.12,-0.31,1.40
1865472,0.02,-0.03,0.98,-0.06,-0.49,0.06
1865481,-0.00,-0.00,0.98,-0.37,-0.61,-1.46
1865489,-0.04,0.05,0.98,-0.12,-0.61,-2.50
1865498,-0.07,0.09,0.98,0.00,-0.61,-2.32
1865507,-0.08,0.09,0.99,0.06,-0.24,-0.98
1865515,-0.07,0.06,0.98,0.24,0.00,0.67
1865524,-0.05,0.03,0.97,0.37,0.43,1.40
1865532,-0.03,-0.01,0.97,0.43,0.98,1.83
1865541,-0.02,-0.02,0.97,0.37,1.40,0.98
1865550,-0.02,-0.00,0.97,0.61,1.71,-0.37
1865559,-0.02,0.03,0.98,0.73,2.08,-1.71
1865567,-0.03,0.06,0.99,0.92,2.32,-1.95
1865575,-0.02,0.07,1.00,1.04,2.08,-1.34
1865584,0.00,0.05,1.01,1.16,1.71,-0.31
1865592,0.03,0.02,1.01,1.16,1.22,0.61
1865602,0.06,-0.01,1.00,1.16,0.67,0.49
1865610,0.06,-0.00,0.96,1.40,0.18,-0.85
1865619,0.04,0.00,0.99,1.53,0.37,-1.83
1865627,0.00,0.03,1.01,1.46,0.31,-2.44
1865636,-0.02,0.05,0.98,1.46,-0.73,-2.20
1865645,-0.03,0.05,0.97,1.34,-0.92,-0.85
1865653,-0.03,0.02,0.98,0.98,-0.67,0.73
1865662,-0.02,-0.00,0.97,0.67,-0.73,1.71
1865670,-0.02,-0.03,0.97,0.73,-0.49,1.65
1865679,-0.03,-0.04,0.97,0.43,-0.31,0.85
1865688,-0.05,-0.02,0.95,0.24,-0.06,0.00
1865697,-0.06,-0.00,0.97,-0.06,0.49,-0.37
1865705,-0.06,0.01,0.98,-0.06,0.67,-0.24
1865714,-0.05,0.02,0.96,-0.24,0.73,0.18
1865722,-0.03,0.01,0.97,-0.55,1.10,0.92
1865730,-0.01,0.00,0.98,-0.79,1.22,1.22
1865739,0.01,-0.01,0.99,-0.73,1.53,0.92
1865748,0.02,0.00,0.98,-0.73,1.28,0.31
1865757,0.02,0.02,1.00,-0.85,1.10,-0.31
1865765,0.01,0.04,0.99,-0.85,0.67,-0.55
1865773,0.00,0.06,1.00,-0.61,0.18,-0.61
1865783,-0.00,0.07,1.00,-0.55,0.12,-0.31
1865791,-0.01,0.06,1.00,-0.31,-0.06,0.00
1865800,-0.02,0.05,0.99,0.06,0.00,0.24
1865809,-0.02,0.04,0.98,0.49,0.12,0.06
1865817,-0.03,0.04,0.98,0.67,0.37,0.00
1865826,-0.04,0.03,0.99,0.79,0.55,-0.43
1865834,-0.04,0.03,0.98,1.10,0.61,-0.49
1865843,-0.04,0.03,0.99,1.28,0.67,-0.31
1865852,-0.03,0.02,0.99,1.10,1.04,0.06
1865860,-0.02,0.01,0.99,1.10,0.67,0.24
1865869,0.00,-0.00,0.98,1.16,0.73,0.37
1865877,0.01,-0.01,0.98,1.10,0.73,0.00
1865886,0.01,-0.00,0.98,0.92,0.61,-0.61
1865895,0.01,0.01,0.98,0.92,0.67,-0.92
1865903,-0.01,0.03,0.98,0.98,0.43,-1.16
1865912,-0.03,0.04,0.98,0.79,0.37,-0.85
1865920,-0.04,0.04,0.99,0.61,0.43,-0.31
1865929,-0.04,0.03,0.98,0.67,0.49,0.31
1865937,-0.04,0.01,0.97,0.73,0.55,0.61
1865946,-0.03,-0.01,0.97,0.55,0.92,0.61
1865955,-0.03,-0.02,0.98,0.43,1.22,0.24
1865963,-0.02,-0.00,0.98,0.31,1.16,-0.24
1865972,-0.01,0.01,0.99,0.24,1.10,-0.79
1865980,-0.00,0.02,1.01,0.12,0.85,-0.79
1865989,0.00,0.04,0.97,0.31,0.24,-0.49
1865998,0.01,0.04,0.97,-0.06,0.55,0.12
1866007,0.00,0.03,1.00,-0.31,1.22,0.43
1866016,-0.00,0.03,1.00,0.31,0.79,0.24
1866023,-0.01,0.04,0.99,0.67,0.43,-0.24
1866032,-0.03,0.05,0.98,0.73,0.43,-0.73
1866041,-0.03,0.05,0.99,0.98,0.73,-0.85
1866050,-0.03,0.04,1.00,1.28,0.79,-0.61
1866058,-0.03,0.04,0.98,1.46,0.92,-0.31
1866067,-0.02,0.02,0.98,1.46,0.92,0.12
1866075,-0.01,-0.00,0.98,1.46,0.98,0.31
1866084,0.00,-0.02,0.99,1.10,0.73,0.31
1866093,0.00,-0.01,0.98,0.98,0.55,-0.12
1866101,0.01,-0.01,0.98,0.92,0.37,-0.43
1866110,-0.00,-0.01,0.98,0.73,0.37,-0.43
1866119,-0.00,0.02,0.99,0.43,0.12,-0.31
1866127,-0.01,0.03,0.98,0.49,-0.12,-0.06
1866136,-0.02,0.03,0.99,0.18,-0.12,0.06
1866145,-0.03,0.03,0.98,0.18,0.12,0.18
1866153,-0.03,0.02,0.98,0.31,0.18,0.37
1866162,-0.03,0.01,0.98,0.31,0.43,0.24
1866170,-0.03,0.01,0.97,0.24,0.43,0.18
1866179,-0.03,0.01,0.98,0.18,0.85,0.18
1866187,-0.03,0.01,0.99,0.06,1.04,0.31
1866196,-0.03,0.01,0.97,0.12,0.79,0.43
1866205,-0.02,0.01,0.97,0.06,0.85,0.67
1866214,-0.01,0.01,0.99,-0.24,1.22,0.73
1866222,-0.00,0.01,1.00,-0.24,1.34,0.43
1866231,-0.00,0.04,0.98,0.18,0.85,-0.24
1866239,-0.00,0.05,0.99,0.18,1.16,-0.67
1866248,-0.01,0.07,1.01,0.43,1.22,-0.92
1866257,-0.01,0.07,1.00,1.16,0.73,-0.79
1866265,-0.01,0.06,1.00,1.34,0.73,-0.67
1866274,-0.01,0.04,0.99,1.40,0.61,-0.31
1866282,-0.01,0.02,0.99,1.77,0.55,0.00
1866291,-0.01,-0.00,0.97,1.95,0.43,-0.06
1866299,-0.02,-0.02,0.96,1.59,0.37,0.12
1866309,-0.02,-0.03,0.97,1.22,0.55,0.12
1866317,-0.02,-0.05,0.97,1.04,0.67,0.06
1866326,-0.02,-0.03,0.97,0.67,0.55,-0.18
1866334,-0.03,-0.01,0.96,0.06,0.61,-0.61
1866343,-0.03,0.01,0.98,-0.31,0.85,-0.61
1866351,-0.03,0.03,0.99,-0.24,1.10,-0.79
1866360,-0.02,0.05,0.99,-0.18,1.04,-0.61
1866368,-0.01,0.04,0.99,-0.24,1.04,-0.18
1866377,-0.00,0.04,1.00,0.12,1.04,-0.24
1866386,0.00,0.03,0.99,0.31,1.04,-0.37
1866394,0.00,0.03,0.99,0.55,1.16,-0.67
1866403,0.00,0.02,0.99,0.61,0.79,-0.67
1866412,-0.00,0.02,0.99,0.79,0.61,-0.55
1866420,-0.01,0.02,0.98,0.85,-0.06,-0.24
1866429,-0.02,0.02,0.97,0.55,0.00,0.24
1866438,-0.02,0.01,0.98,0.18,0.06,0.61
1866446,-0.03,0.00,0.99,0.49,0.24,0.31
1866455,-0.04,0.01,0.98,0.61,0.18,-0.18
1866464,-0.05,0.03,0.97,0.43,0.37,-0.49
1866472,-0.06,0.03,0.98,0.61,0.79,-0.67
1866481,-0.06,0.03,0.98,0.73,1.16,-0.49
1866490,-0.05,0.03,0.97,0.85,1.46,-0.06
1866498,-0.04,0.00,0.98,0.73,1.83,0.49
1866506,-0.01,-0.02,0.98,0.55,1.83,0.43
1866516,-0.00,-0.02,0.97,0.06,1.89,0.24
1866524,0.01,-0.02,0.97,-0.12,1.95,-0.18
1866532,0.01,-0.01,0.98,-0.12,1.89,-0.73
1866541,0.01,0.00,0.99,-0.18,1.83,-0.79
1866550,0.01,0.03,0.98,-0.49,1.28,-0.67
1866559,0.01,0.03,0.99,-0.85,1.22,-0.18
1866567,-0.00,0.04,1.00,-0.73,0.85,0.37
1866576,-0.00,0.03,0.99,-0.31,0.55,0.37
1866585,-0.01,0.03,0.98,-0.24,0.67,0.18
1866593,-0.02,0.01,0.98,0.06,1.04,-0.37
1866602,-0.03,0.01,0.99,0.06,1.22,-0.79
1866611,-0.05,0.02,0.97,0.12,1.04,-1.22
1866618,-0.06,0.03,0.98,0.18,1.16,-0.98
1866627,-0.05,0.03,0.98,-0.06,1.46,-0.06
1866636,-0.01,0.02,0.98,-0.24,1.89,0.79
1866645,0.00,0.02,0.99,0.00,1.89,0.43
1866653,0.01,0.04,1.00,0.12,1.83,-0.55
1866662,-0.00,0.07,1.00,0.67,1.89,-1.46
1866670,-0.01,0.10,1.01,1.16,1.53,-1.71
1866679,-0.01,0.10,1.01,1.53,1.53,-1.10
1866688,-0.01,0.07,1.00,1.65,1.22,-0.06
1866696,0.00,0.02,1.00,1.89,0.85,0.92
1866705,0.01,-0.02,0.98,2.26,0.37,1.22
1866713,0.01,-0.06,0.95,2.08,0.18,0.85
1866722,0.00,-0.07,0.96,1.59,0.43,0.18
1866731,-0.01,-0.06,0.97,1.22,0.61,-1.10
1866740,-0.03,-0.02,0.96,0.55,0.61,-1.77
1866748,-0.04,0.01,0.96,0.06,0.55,-1.77
1866757,-0.04,0.02,0.97,-0.24,0.61,-0.98
1866765,-0.03,0.01,0.98,-0.49,0.85,0.24
1866773,-0.02,-0.01,0.99,-0.98,0.73,1.22
1866782,-0.00,-0.04,0.98,-1.65,0.49,1.59
1866791,0.02,-0.05,0.93,-2.20,0.06,1.95
1866800,0.03,-0.06,0.94,-2.50,0.43,1.59
1866808,0.02,-0.05,1.00,-2.75,1.04,0.61
1866817,-0.00,0.01,1.00,-2.81,0.73,-1.22
1866826,-0.03,0.08,0.99,-2.81,0.18,-2.69
1866834,-0.05,0.13,1.00,-2.08,0.31,-2.69
1866843,-0.05,0.14,1.01,-1.77,0.67,-1.22
1866852,-0.04,0.12,1.00,-1.46,0.85,0.49
1866860,-0.01,0.07,1.00,-0.67,0.67,2.14
1866869,0.01,0.01,1.00,-0.12,0.85,2.44
1866878,0.02,-0.02,0.98,0.31,0.55,1.28
1866886,0.02,-0.01,0.98,0.55,0.43,-0.31
1866895,-0.01,0.02,0.99,0.73,0.37,-1.77
1866903,-0.03,0.06,0.99,0.85,0.43,-2.26
1866912,-0.04,0.08,0.99,0.98,0.24,-1.53
1866921,-0.03,0.07,1.00,0.98,0.37,-0.24
1866929,-0.01,0.04,0.99,1.04,0.31,0.98
1866938,0.01,0.00,0.98,0.98,0.37,1.28
1866946,0.02,-0.02,0.98,0.98,0.18,0.55
1866955,0.01,-0.02,0.98,0.92,0.00,-0.55
1866963,-0.00,-0.00,0.98,0.85,0.24,-1.89
1866972,-0.02,0.03,0.98,0.85,0.18,-2.44
1866981,-0.03,0.05,0.99,0.67,0.12,-2.01
1866989,-0.03,0.05,1.00,0.55,0.06,-0.98
1866998,-0.02,0.03,0.99,0.67,-0.24,0.12
1867007,-0.01,0.01,0.98,0.73,-0.55,0.73
1867015,-0.01,-0.01,0.97,0.49,-0.24,0.55
1867024,-0.02,-0.01,0.97,0.49,-0.06,-0.06
1867032,-0.03,0.01,0.98,0.73,0.18,-0.79
1867041,-0.05,0.03,0.98,0.79,0.18,-1.22
1867050,-0.06,0.04,0.97,0.67,0.18,-1.28
1867058,-0.06,0.04,0.98,0.55,0.49,-0.49
1867067,-0.04,0.02,0.98,0.37,0.85,0.31
1867075,-0.02,-0.00,0.97,0.18,0.92,0.85
1867084,-0.01,-0.02,0.97,0.00,0.79,0.73
1867093,-0.01,-0.03,0.97,-0.31,0.98,0.49
1867101,-0.01,-0.02,0.97,-0.49,1.16,0.24
1867110,-0.02,-0.00,0.98,-0.67,1.10,0.00
1867119,-0.02,0.02,0.98,-1.16,0.79,-0.12
1867127,-0.02,0.04,0.98,-1.34,0.79,0.00
1867136,-0.02,0.04,0.99,-1.28,0.92,0.31
1867144,-0.01,0.04,0.99,-1.34,1.16,0.67
1867153,-0.01,0.04,0.99,-1.28,1.28,0.55
1867161,-0.00,0.04,1.00,-0.92,1.28,0.37
1867171,-0.00,0.04,1.00,-0.61,1.16,-0.06
1867179,-0.00,0.05,0.99,-0.37,1.04,-0.31
1867187,-0.00,0.05,1.00,0.06,1.04,-0.24
1867196,-0.01,0.05,1.00,0.43,0.73,-0.37
1867205,-0.01,0.05,1.00,0.67,0.55,-0.31
1867213,-0.01,0.05,0.99,0.79,0.55,-0.24
1867222,-0.02,0.04,0.99,1.04,0.37,-0.12
1867231,-0.02,0.03,0.98,1.34,0.43,-0.18
1867239,-0.02,0.02,0.98,1.59,0.61,-0.24
1867248,-0.02,0.02,0.98,1.34,0.67,-0.31
1867256,-0.02,0.01,0.98,1.22,0.79,-0.43
1867265,-0.02,0.01,0.98,1.28,0.92,-0.73
1867274,-0.02,0.01,0.98,1.16,0.85,-0.55
1867283,-0.02,0.01,0.98,1.04,0.79,-0.31
1867291,-0.02,0.01,0.98,0.85,0.73,-0.18
1867300,-0.01,0.01,0.98,0.79,0.67,-0.18
1867308,-0.01,0.01,0.98,0.67,0.85,0.06
1867317,-0.01,0.01,0.98,0.43,0.67,-0.12
1867325,-0.02,0.02,0.98,0.18,0.79,-0.18
1867334,-0.02,0.02,0.98,0.12,0.92,-0.12
1867343,-0.02,0.02,0.98,0.06,0.98,-0.06
1867351,-0.02,0.02,0.98,-0.31,0.85,0.06
1867360,-0.02,0.02,0.98,-0.12,0.85,0.18
1867369,-0.01,0.02,0.99,-0.12,0.98,0.12
1867377,-0.01,0.02,0.99,-0.12,1.04,-0.18
1867386,-0.01,0.02,0.99,-0.06,0.92,-0.43
1867395,-0.01,0.03,0.99,-0.06,1.04,-0.49
1867403,-0.01,0.03,0.99,-0.06,0.98,-0.49
1867412,-0.01,0.04,0.99,0.06,0.61,-0.37
1867421,-0.01,0.03,0.99,0.37,0.67,-0.18
1867429,-0.01,0.03,0.99,0.31,0.49,-0.18
1867438,-0.02,0.03,0.99,0.55,0.73,-0.06
1867446,-0.02,0.03,0.98,0.49,0.61,-0.06
1867455,-0.02,0.03,0.98,0.61,0.55,-0.24
1867463,-0.02,0.03,0.98,0.85,0.73,-0.37
1867472,-0.02,0.02,0.98,0.92,0.67,-0.31
1867481,-0.02,0.02,0.98,0.67,0.73,-0.06
1867489,-0.02,0.02,0.97,0.73,0.55,0.00
1867498,-0.01,0.02,0.98,0.61,1.10,-0.06
1867506,-0.01,0.02,0.99,0.37,0.85,0.06
1867515,-0.01,0.02,0.98,0.55,0.61,-0.12
1867524,-0.02,0.02,0.98,0.61,0.79,-0.37
1867533,-0.02,0.03,0.98,0.49,1.04,-0.49
1867541,-0.02,0.03,0.99,0.55,1.10,-0.67
1867550,-0.02,0.03,0.98,0.61,1.04,-0.49
1867558,-0.02,0.02,0.98,0.67,0.98,-0.12
1867567,-0.01,0.02,0.98,0.55,1.04,0.06
1867575,-0.01,0.01,0.98,0.49,1.04,0.06
1867584,-0.01,0.01,0.98,0.37,0.85,0.00
1867593,-0.00,0.01,0.98,0.31,0.73,-0.06
1867602,-0.00,0.01,0.99,0.24,0.67,-0.37
1867610,-0.00,0.02,0.99,0.31,0.49,-0.31
1867619,-0.00,0.02,0.99,0.24,0.37,-0.18
1867628,0.00,0.02,0.99,0.00,0.18,-0.18
1867636,0.00,0.02,0.99,-0.06,0.06,-0.24
1867645,-0.00,0.02,0.99,-0.24,0.06,-0.18
1867654,-0.01,0.02,0.99,-0.06,-0.18,-0.31
1867662,-0.03,0.03,0.98,0.06,-0.37,-0.24
1867671,-0.04,0.04,0.98,0.12,-0.24,-0.06
1867679,-0.05,0.04,0.98,-0.06,-0.06,0.12
1867687,-0.05,0.03,0.98,0.06,0.24,0.12
1867696,-0.05,0.03,0.98,0.24,0.61,0.24
1867705,-0.05,0.03,0.97,0.37,0.98,0.06
1867714,-0.04,0.03,0.98,0.43,1.46,-0.06
1867722,-0.03,0.03,0.98,0.61,1.77,-0.12
1867731,-0.02,0.04,0.99,0.73,2.01,-0.31
1867740,-0.01,0.03,0.99,0.92,2.01,-0.37
1867748,0.00,0.03,0.99,1.04,1.83,-0.06
1867757,0.01,0.02,0.99,1.04,1.77,-0.18
1867765,0.01,0.02,0.99,1.16,1.65,-0.37
1867774,0.00,0.02,0.99,1.16,1.34,-0.43
1867782,0.00,0.02,0.99,1.22,0.98,-0.43
1867791,-0.01,0.02,0.98,0.92,0.73,-0.31
1867799,-0.01,0.02,0.98,0.73,0.92,-0.18
1867808,-0.01,0.01,0.98,0.79,0.61,-0.18
1867817,-0.01,0.00,0.98,0.79,0.73,-0.24
1867825,-0.00,0.00,0.98,0.55,0.49,-0.18
1867834,-0.00,0.01,0.98,0.49,0.61,-0.24
1867843,-0.00,0.01,0.98,0.31,0.37,-0.24
1867852,-0.01,0.02,0.99,0.12,0.24,-0.31
1867861,-0.01,0.02,0.99,-0.06,0.12,-0.37
1867869,-0.01,0.02,0.99,-0.18,-0.12,-0.06
1867877,-0.02,0.02,0.98,-0.12,-0.24,0.00
1867886,-0.03,0.02,0.98,0.00,-0.49,0.06
1867894,-0.03,0.03,0.98,-0.12,-0.06,0.00
1867903,-0.04,0.03,0.98,-0.12,0.31,0.12
1867912,-0.04,0.03,0.98,-0.18,0.43,0.00
1867920,-0.04,0.03,0.98,0.12,0.61,-0.12
1867929,-0.03,0.03,0.98,0.12,1.04,-0.18
1867938,-0.03,0.03,0.98,0.24,1.16,-0.37
1867946,-0.02,0.04,0.99,0.24,1.71,-0.37
1867955,-0.01,0.03,0.99,0.49,1.53,-0.31
1867963,-0.01,0.03,0.99,0.55,1.59,-0.37
1867972,-0.00,0.03,0.99,0.73,1.34,-0.31
1867981,0.00,0.03,0.99,0.73,1.28,-0.43
1867989,-0.00,0.03,0.99,0.73,1.34,-0.31
1867998,-0.01,0.03,0.99,0.73,0.92,-0.37
1868006,-0.01,0.02,0.98,0.92,0.85,-0.24
1868015,-0.01,0.02,0.98,0.85,0.85,-0.18
1868024,-0.01,0.02,0.99,0.85,0.73,-0.12
1868032,-0.01,0.01,0.98,0.92,0.79,-0.18
1868042,-0.02,0.01,0.98,0.61,0.73,-0.24
1868050,-0.02,0.01,0.98,0.67,0.79,-0.06
1868059,-0.02,0.01,0.98,0.61,0.55,-0.06
1868067,-0.02,0.02,0.98,0.55,0.55,-0.12
1868076,-0.02,0.02,0.98,0.43,0.55,-0.06
1868085,-0.02,0.02,0.98,0.31,0.49,0.00
1868093,-0.02,0.01,0.98,0.24,0.61,0.31
1868102,-0.02,0.02,0.98,0.24,0.73,0.12
1868110,-0.02,0.02,0.98,0.12,0.92,-0.06
1868119,-0.02,0.03,0.98,0.06,0.92,-0.24
1868128,-0.02,0.03,0.99,0.06,0.92,-0.24
1868136,-0.02,0.03,0.98,0.12,1.16,-0.06
1868145,-0.02,0.03,0.99,0.37,1.22,-0.18
1868153,-0.02,0.03,0.98,0.43,1.22,-0.31
1868162,-0.01,0.03,0.99,0.49,1.04,-0.18
1868171,-0.01,0.03,0.99,0.43,0.92,-0.18
1868179,-0.01,0.03,0.99,0.55,1.04,-0.31
1868188,-0.01,0.03,0.99,0.61,1.10,-0.24
1868197,-0.01,0.03,0.99,0.73,1.04,-0.18
1868205,-0.01,0.03,0.99,0.73,0.85,-0.31
1868214,-0.01,0.02,0.99,0.67,0.98,-0.31
1868223,-0.01,0.02,0.98,0.73,0.85,-0.31
1868231,-0.01,0.02,0.98,0.61,0.49,-0.24
1868240,-0.01,0.02,0.98,0.67,0.73,-0.24
1868248,-0.02,0.02,0.98,0.79,0.73,-0.12
1868257,-0.02,0.02,0.98,0.85,0.43,-0.12
1868266,-0.02,0.02,0.98,0.61,0.61,-0.06
1868274,-0.02,0.01,0.98,0.49,0.67,0.00
1868283,-0.02,0.01,0.98,0.43,0.61,0.00
1868292,-0.02,0.01,0.98,0.24,0.85,0.00
1868300,-0.02,0.02,0.98,0.37,0.98,-0.18
1868309,-0.02,0.02,0.98,0.31,0.85,-0.18
1868317,-0.02,0.02,0.98,0.18,0.92,-0.37
1868326,-0.02,0.03,0.98,0.06,0.79,-0.24
1868334,-0.02,0.03,0.98,0.24,0.85,-0.24
1868343,-0.02,0.03,0.99,0.37,0.85,-0.18
1868352,-0.02,0.03,0.99,0.24,1.10,-0.31
1868361,-0.02,0.03,0.99,0.49,1.04,-0.18
1868369,-0.01,0.03,0.98,0.37,1.04,-0.06
1868378,-0.01,0.03,0.98,0.37,1.10,-0.31
1868386,-0.01,0.03,0.99,0.55,1.10,-0.31
1868395,-0.01,0.03,0.99,0.55,1.04,-0.49
1868403,-0.01,0.03,0.99,0.55,1.10,-0.43
1868412,-0.01,0.03,0.99,0.49,0.98,-0.37
1868421,-0.01,0.02,0.99,0.61,0.79,-0.24
1868429,-0.01,0.02,0.99,0.61,0.67,-0.06
1868438,-0.01,0.02,0.99,0.61,0.55,0.00
1868446,-0.01,0.02,0.99,0.85,0.37,-0.06
1868455,-0.01,0.02,0.98,0.73,0.43,-0.12
1868463,-0.02,0.02,0.98,0.67,0.43,-0.12
1868472,-0.02,0.02,0.98,0.43,0.18,-0.24
1868481,-0.03,0.02,0.98,0.49,0.06,-0.24
1868489,-0.03,0.02,0.98,0.61,0.43,-0.12
1868498,-0.03,0.02,0.98,0.55,0.79,-0.18
1868507,-0.03,0.02,0.98,0.61,0.92,-0.12
1868515,-0.03,0.02,0.98,0.37,1.22,-0.12
1868524,-0.02,0.02,0.98,0.49,1.28,-0.24
1868533,-0.02,0.03,0.98,0.49,1.28,-0.37
1868542,-0.01,0.02,0.98,0.55,1.40,-0.31
1868550,-0.01,0.02,0.99,0.67,1.34,-0.37
1868559,-0.01,0.02,0.99,0.61,1.16,-0.49
1868567,-0.00,0.02,0.99,0.43,1.22,-0.43
1868576,0.00,0.02,0.99,0.49,0.73,-0.37
1868585,0.00,0.02,0.99,0.49,0.61,-0.24
1868593,-0.00,0.02,0.99,0.37,0.67,-0.43
1868602,-0.01,0.02,0.99,0.49,0.49,-0.06
1868611,-0.01,0.02,0.99,0.37,0.37,-0.24
1868619,-0.01,0.02,0.98,0.37,0.18,-0.18
1868628,-0.02,0.02,0.98,0.18,0.24,-0.18
1868636,-0.02,0.02,0.98,0.24,0.31,-0.24
1868645,-0.02,0.02,0.98,0.24,0.31,-0.18
1868654,-0.02,0.02,0.98,0.24,0.31,-0.18
1868662,-0.02,0.02,0.98,0.12,0.37,-0.18
1868671,-0.02,0.02,0.98,0.18,0.43,-0.12
1868679,-0.03,0.02,0.98,0.24,0.55,-0.18
1868688,-0.03,0.03,0.98,0.18,0.49,0.06
1868696,-0.03,0.03,0.98,0.18,0.55,0.06
1868705,-0.03,0.02,0.98,0.06,0.73,0.06
1868713,-0.03,0.02,0.98,0.06,0.79,-0.24
1868722,-0.03,0.03,0.98,0.18,0.98,-0.31
1868731,-0.03,0.03,0.98,0.12,1.16,-0.37
1868739,-0.02,0.03,0.98,0.06,1.53,-0.24
1868748,-0.02,0.04,0.99,0.31,1.59,-0.37
1868757,-0.02,0.03,0.99,0.43,1.46,-0.18
1868765,-0.01,0.03,0.99,0.67,1.59,-0.12
1868774,-0.00,0.03,0.99,0.73,1.59,-0.31
1868783,0.00,0.03,0.99,0.92,1.40,-0.24
1868792,0.00,0.02,0.99,0.98,1.16,-0.43
1868800,0.00,0.02,0.99,0.73,1.04,-0.43
1868809,-0.00,0.02,0.99,0.67,0.85,-0.49
1868817,-0.00,0.02,0.99,0.92,0.73,-0.37
1868826,-0.01,0.01,0.98,0.85,0.24,-0.37
1868835,-0.01,0.02,0.98,0.73,0.43,-0.31
1868843,-0.01,0.01,0.98,0.55,0.31,-0.37
1868852,-0.02,0.02,0.98,0.43,0.24,-0.31
1868861,-0.02,0.02,0.98,0.49,0.24,-0.12
1868869,-0.02,0.02,0.98,0.37,0.24,-0.18
1868878,-0.03,0.02,0.98,0.31,0.43,0.00
1868886,-0.03,0.02,0.98,0.24,0.31,0.18
1868895,-0.02,0.02,0.98,0.24,0.43,0.24
1868903,-0.02,0.02,0.98,0.31,0.61,0.31
1868912,-0.02,0.01,0.98,0.06,0.79,0.12
1868920,-0.01,0.02,0.98,-0.12,0.67,0.00
1868929,-0.01,0.02,0.99,-0.18,0.92,-0.24
1868938,-0.01,0.03,0.99,-0.12,0.92,-0.43
1868946,-0.02,0.03,0.99,0.06,0.73,-0.55
1868955,-0.01,0.04,0.99,0.18,0.85,-0.43
1868964,-0.02,0.04,0.99,0.31,0.73,-0.31
1868972,-0.02,0.04,0.99,0.31,0.67,-0.24
1868981,-0.02,0.04,0.99,0.49,0.79,-0.12
1868990,-0.02,0.03,0.99,0.79,0.85,-0.31
1868998,-0.02,0.03,0.98,0.92,0.85,-0.12
1869007,-0.02,0.03,0.98,0.85,0.85,-0.18
1869015,-0.02,0.03,0.98,0.98,0.85,-0.31
1869024,-0.01,0.02,0.98,0.92,0.79,-0.24
1869033,-0.01,0.02,0.98,1.04,0.98,-0.24
1869041,-0.01,0.02,0.98,0.92,0.92,-0.18
1869050,-0.01,0.01,0.98,0.79,0.79,-0.06
1869059,-0.01,0.01,0.98,0.79,0.79,-0.12
1869067,-0.01,0.01,0.98,0.79,0.67,-0.12
1869076,-0.02,0.01,0.98,0.73,0.61,-0.24
1869085,-0.02,0.01,0.98,0.43,0.73,0.00
1869093,-0.02,0.01,0.98,0.24,0.67,0.12
1869102,-0.02,0.01,0.98,0.31,0.43,0.12
1869110,-0.02,0.01,0.98,0.18,0.55,0.00
1869119,-0.02,0.02,0.98,-0.06,0.73,0.06
1869127,-0.02,0.02,0.98,0.18,0.67,-0.24
1869136,-0.02,0.02,0.98,0.00,0.73,-0.24
1869145,-0.02,0.03,0.99,-0.12,1.04,-0.18
1869154,-0.01,0.03,0.99,0.06,1.04,-0.18
1869162,-0.01,0.03,0.99,0.24,0.79,-0.24
1869170,-0.01,0.03,0.99,0.18,0.61,-0.37
1869179,-0.02,0.03,0.99,0.24,0.85,-0.24
1869188,-0.02,0.03,0.99,0.37,0.79,-0.43
1869196,-0.02,0.03,0.99,0.37,0.79,-0.31
1869205,-0.02,0.03,0.98,0.49,0.67,-0.18
1869214,-0.02,0.03,0.98,0.55,0.79,-0.18
1869223,-0.02,0.03,0.98,0.61,0.92,-0.18
1869231,-0.02,0.02,0.98,0.79,0.92,-0.31
1869240,-0.02,0.03,0.98,1.04,0.79,-0.24
1869249,-0.02,0.02,0.98,0.85,0.79,-0.49
1869257,-0.01,0.02,0.99,0.79,0.79,-0.49
1869265,-0.02,0.02,0.99,0.98,0.79,-0.31
1869274,-0.01,0.02,0.98,0.92,0.73,-0.31
1869283,-0.02,0.02,0.98,0.85,0.73,-0.31
1869291,-0.02,0.02,0.98,0.67,0.79,-0.24
1869299,-0.02,0.02,0.99,0.37,0.61,0.00
1869309,-0.02,0.02,0.96,0.67,0.43,0.12
1869318,-0.02,0.01,0.98,0.37,1.10,0.31
1869326,-0.02,0.02,0.99,0.12,1.22,0.43
1869335,-0.03,0.02,0.97,0.24,0.92,0.31
1869343,-0.02,0.02,0.98,0.24,1.04,-0.12
1869352,-0.02,0.03,0.98,0.12,1.40,-0.43
1869361,-0.01,0.03,0.99,0.31,1.53,-0.37
1869369,-0.01,0.03,0.99,0.37,1.40,-0.24
1869378,0.00,0.03,0.99,0.49,1.04,-0.12
1869386,0.01,0.02,0.99,0.24,0.85,0.06
1869395,0.01,0.02,0.99,0.31,0.92,-0.18
1869404,0.00,0.02,0.99,0.49,0.79,-0.31
1869412,-0.01,0.02,0.99,0.49,0.43,-0.49
1869421,-0.02,0.03,0.99,0.43,0.37,-0.73
1869430,-0.02,0.03,0.99,0.43,0.24,-0.73
1869438,-0.02,0.04,0.98,0.49,0.43,-0.49
1869446,-0.02,0.03,0.99,0.67,0.43,-0.24
1869455,-0.02,0.03,0.99,0.61,0.49,-0.06
1869464,-0.02,0.02,0.98,0.79,0.55,-0.24
1869472,-0.02,0.02,0.98,0.73,0.43,-0.12
1869481,-0.02,0.02,0.98,0.61,0.31,0.00
1869490,-0.02,0.02,0.98,0.61,0.12,-0.18
1869498,-0.02,0.02,0.98,0.67,0.37,-0.12
1869507,-0.02,0.01,0.97,0.67,0.31,-0.06
1869516,-0.03,0.01,0.98,0.49,0.24,-0.12
1869524,-0.03,0.01,0.97,0.18,0.67,-0.06
1869533,-0.03,0.01,0.97,0.00,0.67,-0.12
1869542,-0.03,0.01,0.97,-0.12,0.67,-0.18
1869550,-0.03,0.01,0.98,-0.24,0.98,-0.06
1869559,-0.03,0.02,0.98,-0.31,1.22,-0.43
1869568,-0.03,0.03,0.98,-0.18,1.28,-0.31
1869575,-0.02,0.03,0.99,-0.18,1.28,-0.18
1869584,-0.02,0.03,0.99,-0.12,1.40,-0.18
1869593,-0.01,0.04,0.99,0.00,1.16,-0.37
1869602,-0.00,0.03,0.99,0.06,1.22,-0.31
1869611,0.00,0.03,0.99,0.31,1.16,-0.31
1869619,0.00,0.03,0.99,0.24,0.98,-0.12
1869628,-0.00,0.03,0.99,0.37,0.67,-0.24
1869636,-0.00,0.03,0.99,0.49,0.55,-0.43
1869645,-0.01,0.03,0.99,0.43,0.31,-0.43
1869653,-0.01,0.03,0.99,0.49,0.37,-0.31
1869662,-0.01,0.02,0.98,0.49,0.24,-0.31
1869671,-0.02,0.03,0.98,0.67,0.37,-0.18
1869680,-0.02,0.02,0.98,0.85,0.18,-0.31
1869688,-0.03,0.02,0.98,0.85,0.31,-0.31
1869697,-0.03,0.02,0.98,0.73,0.43,-0.24
1869705,-0.03,0.02,0.98,0.61,0.55,-0.12
1869714,-0.03,0.01,0.98,0.61,0.55,-0.12
1869723,-0.02,0.01,0.98,0.49,0.73,0.00
1869731,-0.02,0.01,0.98,0.43,0.79,0.12
1869739,-0.01,0.01,0.98,0.18,1.10,0.00
1869748,-0.01,0.01,0.98,0.18,1.28,-0.37
1869757,-0.01,0.02,0.98,0.12,1.04,-0.49
1869765,-0.01,0.02,0.99,0.06,1.16,-0.55
1869774,-0.01,0.03,0.99,0.12,0.92,-0.43
1869783,-0.01,0.03,0.99,0.12,0.79,-0.24
1869792,-0.01,0.03,0.99,0.18,0.73,-0.31
1869800,-0.01,0.03,0.99,0.12,0.73,-0.24
1869809,-0.01,0.03,0.99,0.18,0.92,-0.24
1869818,-0.01,0.03,0.99,0.37,0.73,-0.31
1869826,-0.01,0.03,0.98,0.18,0.67,-0.12
1869835,-0.01,0.03,0.99,0.37,0.61,-0.31
1869844,-0.01,0.02,0.98,0.49,0.55,-0.31
1869852,-0.01,0.02,0.99,0.49,0.55,-0.12
1869861,-0.01,0.02,0.99,0.31,0.67,-0.18
1869869,-0.01,0.02,0.99,0.43,0.67,-0.18
1869877,-0.02,0.02,0.98,0.55,0.43,-0.24
1869887,-0.02,0.02,0.98,0.55,0.24,-0.12
1869895,-0.03,0.02,0.98,0.43,0.37,-0.06
1869904,-0.03,0.02,0.98,0.43,0.37,0.00
1869912,-0.03,0.02,0.98,0.37,0.55,0.06
1869921,-0.03,0.02,0.98,0.12,0.85,-0.06
1869929,-0.03,0.02,0.98,0.12,0.98,-0.06
1869938,-0.03,0.02,0.98,0.18,0.92,-0.12
1869946,-0.02,0.03,0.98,0.37,1.04,-0.24
1869956,-0.02,0.02,0.99,0.24,1.34,-0.18
1869963,-0.02,0.03,0.99,0.18,1.46,-0.24
1869973,-0.02,0.03,0.98,0.37,1.22,-0.31
1869981,-0.01,0.03,0.98,0.37,1.22,-0.43
1869990,-0.01,0.03,0.99,0.37,1.40,-0.43
1869999,-0.01,0.03,0.99,0.49,1.34,-0.37
1870006,-0.01,0.03,0.99,0.43,1.04,-0.12
1870016,-0.01,0.02,0.99,0.49,0.98,-0.06
1870024,-0.00,0.02,0.99,0.61,1.04,0.00
1870034,-0.00,0.02,0.99,0.61,0.79,-0.18
1870041,-0.00,0.02,0.99,0.67,0.55,-0.31
1870050,-0.00,0.02,0.99,0.49,0.49,-0.24
1870059,-0.01,0.03,0.99,0.55,0.37,-0.24
1870067,-0.01,0.03,0.99,0.73,0.18,-0.37
1870076,-0.01,0.03,0.99,0.67,0.12,-0.18
1870085,-0.02,0.02,0.98,0.79,0.24,-0.31
1870094,-0.02,0.02,0.98,0.73,0.18,-0.24
1870102,-0.03,0.02,0.98,0.61,0.12,-0.06
1870111,-0.03,0.01,0.98,0.55,0.24,0.06
1870119,-0.03,0.01,0.97,0.37,0.31,0.00
1870127,-0.03,0.01,0.97,0.37,0.43,0.06
1870136,-0.03,0.02,0.98,0.24,0.67,-0.06
1870145,-0.03,0.02,0.98,0.12,0.79,-0.24
1870153,-0.03,0.02,0.98,0.00,0.98,-0.18
1870162,-0.02,0.02,0.98,0.12,0.92,-0.18
1870171,-0.02,0.03,0.98,0.00,1.04,-0.06
1870180,-0.02,0.03,0.98,0.00,1.10,-0.12
1870188,-0.02,0.03,0.99,0.06,1.28,-0.18
1870197,-0.02,0.03,0.99,-0.06,1.40,-0.31
1870205,-0.01,0.03,0.99,0.12,1.59,-0.37
1870214,-0.01,0.03,0.99,0.37,1.46,-0.18
1870223,-0.01,0.04,0.99,0.61,1.46,-0.31
1870232,-0.01,0.04,0.99,0.55,1.16,-0.31
1870241,-0.00,0.03,0.99,0.55,1.04,-0.31
1870251,-0.00,0.03,0.99,0.61,0.92,-0.24
1870260,0.00,0.02,0.99,0.85,0.85,-0.12
1870268,-0.00,0.02,0.99,0.67,0.67,-0.24
1870275,-0.01,0.02,0.98,0.67,0.43,-0.31
1870283,-0.02,0.02,0.98,0.67,0.24,-0.37
1870292,-0.02,0.02,0.98,0.79,0.31,-0.43
